Time,PosX,PosY,RawVelX,RawVelY,CalcVelX,CalcVelY,RawAccX,RawAccY,CalcAccX,CalcAccY,CalcJerkX,CalcJerkY,CalcForceX,CalcForceY,CalcImpulseX,CalcImpulseY,CalcWork,CalcPower
35.881000,-0.000000,0.000000,0.03,0.18,0.032353,0.189706,-0.64,-1.46,-0.865052,-0.778547,-7.632811,-25.442703,-0.865052,-0.778547,0.032353,0.189706,0.018518,-0.175682
35.915000,0.002200,0.006700,0.03,0.18,0.032353,0.189706,-0.64,-1.46,-0.865052,-0.778547,-7.632811,-25.442703,-0.865052,-0.778547,0.032353,0.189706,0.018518,-0.175682
35.948000,0.003800,0.013600,0.03,0.18,0.017892,0.166422,-0.64,-1.46,-0.792964,-1.110150,-0.848090,-22.686410,-0.792964,-1.110150,0.017892,0.166422,0.014008,-0.198941
35.981000,0.004400,0.019600,0.00,0.14,0.000531,0.126021,-0.58,-1.62,-0.651192,-1.612361,4.735170,-19.046690,-0.651192,-1.612361,0.000531,0.126021,0.007941,-0.203538
36.015000,0.003800,0.023800,-0.01,0.08,-0.012616,0.066142,-0.42,-2.05,-0.327198,-2.054098,6.584477,-14.164283,-0.327198,-2.054098,-0.012616,0.066142,0.002267,-0.131735
36.048000,0.002900,0.025700,-0.02,0.00,-0.018681,-0.008169,-0.18,-2.40,-0.134230,-2.398850,4.218856,-3.626959,-0.134230,-2.398850,-0.018681,-0.008169,0.000208,0.022103
36.081000,0.002100,0.024500,-0.03,-0.09,-0.020167,-0.085926,0.04,-2.29,-0.004817,-2.212746,4.556848,13.572550,-0.004817,-2.212746,-0.020167,-0.085926,0.003895,0.190229
36.115000,0.001200,0.019900,-0.02,-0.16,-0.016524,-0.147545,0.19,-1.59,0.193088,-1.431806,4.006888,31.128729,0.193088,-1.431806,-0.016524,-0.147545,0.011021,0.208066
36.148000,0.000400,0.012500,-0.01,-0.20,-0.008321,-0.172980,0.26,-0.38,0.276477,-0.073977,0.155154,38.617524,0.276477,-0.073977,-0.008321,-0.172980,0.014996,0.010496
36.181000,0.000200,0.004500,-0.00,-0.19,0.000026,-0.153666,0.22,0.95,0.208019,1.205207,-4.818912,28.798200,0.208019,1.205207,0.000026,-0.153666,0.011807,-0.185194
36.215000,0.000700,-0.001900,0.01,-0.13,0.002784,-0.101010,0.07,1.83,-0.049009,1.889807,-5.229766,6.995504,-0.049009,1.889807,0.002784,-0.101010,0.005105,-0.191025
36.248000,0.001000,-0.005000,0.00,-0.05,-0.000512,-0.040240,-0.10,1.87,-0.146509,1.683656,-1.462757,-16.720793,-0.146509,1.683656,-0.000512,-0.040240,0.000810,-0.067675
36.281000,0.001000,-0.004500,-0.00,0.01,-0.005504,0.001213,-0.18,1.19,-0.147926,0.754170,0.368737,-25.791449,-0.147926,0.754170,-0.005504,0.001213,0.000016,0.001729
36.315000,0.000800,-0.002400,-0.01,0.04,-0.010071,0.012858,-0.14,0.29,-0.121160,-0.069474,2.361934,-16.838410,-0.121160,-0.069474,-0.010071,0.012858,0.000133,0.000327
36.348000,0.000200,-0.001000,-0.01,0.02,-0.011910,0.005041,-0.03,-0.33,0.012822,-0.390498,3.211405,-2.652504,0.012822,-0.390498,-0.011910,0.005041,0.000084,-0.002121
36.381000,-0.000400,-0.001000,-0.01,-0.00,-0.010036,-0.005840,0.06,-0.47,0.097284,-0.249672,1.140912,3.324213,0.097284,-0.249672,-0.010036,-0.005840,0.000067,0.000482
36.415000,-0.000700,-0.001500,-0.01,-0.02,-0.006844,-0.012878,0.13,-0.31,0.090439,-0.164365,0.937409,3.292289,0.090439,-0.164365,-0.006844,-0.012878,0.000106,0.001498
36.448000,-0.000900,-0.002200,-0.00,-0.02,-0.002568,-0.016110,0.17,-0.08,0.161045,-0.025754,1.194477,3.647021,0.161045,-0.025754,-0.002568,-0.016110,0.000133,0.000001
36.481000,-0.001000,-0.002900,0.00,-0.02,0.003088,-0.015125,0.17,0.10,0.171672,0.083654,-0.492776,4.124867,0.171672,0.083654,0.003088,-0.015125,0.000119,-0.000735
36.515000,-0.000900,-0.003600,0.01,-0.01,0.008175,-0.009373,0.12,0.23,0.127540,0.254748,-2.639343,2.779472,0.127540,0.254748,0.008175,-0.009373,0.000077,-0.001345
36.548000,-0.000300,-0.004000,0.01,-0.00,0.010211,-0.000407,0.03,0.27,-0.007801,0.272663,-3.066290,-1.181525,-0.007801,0.272663,0.010211,-0.000407,0.000052,-0.000191
36.582000,0.000300,-0.003900,0.01,0.01,0.008701,0.007194,-0.04,0.18,-0.080966,0.174407,-0.738916,-5.458284,-0.080966,0.174407,0.008701,0.007194,0.000064,0.000550
36.615000,0.000400,-0.003200,0.01,0.01,0.006338,0.008484,-0.12,0.02,-0.058047,-0.098499,-1.482291,-4.498995,-0.058047,-0.098499,0.006338,0.008484,0.000056,-0.001204
36.648000,0.000600,-0.002600,0.00,0.01,0.002262,0.004574,-0.20,-0.09,-0.181762,-0.131524,-3.762562,1.520791,-0.181762,-0.131524,0.002262,0.004574,0.000013,-0.001013
36.681000,0.001000,-0.002500,-0.00,0.00,-0.006165,0.002421,-0.21,-0.03,-0.313901,0.004916,1.246083,5.440263,-0.313901,0.004916,-0.006165,0.002421,0.000022,0.001947
36.715000,0.000700,-0.002900,-0.01,0.00,-0.013151,0.006558,-0.11,0.11,-0.097028,0.238414,8.061488,2.856356,-0.097028,0.238414,-0.013151,0.006558,0.000108,0.002839
36.748000,-0.000400,-0.002800,-0.02,0.01,-0.010817,0.013997,0.09,0.15,0.234280,0.199148,6.427780,-4.977906,0.234280,0.199148,-0.010817,0.013997,0.000156,0.000253
36.782000,-0.001200,-0.001900,-0.01,0.02,-0.001053,0.015681,0.22,0.02,0.340061,-0.100083,-3.309730,-6.714267,0.340061,-0.100083,-0.001053,0.015681,0.000123,-0.001928
36.815000,-0.000800,-0.001000,0.01,0.02,0.004884,0.009603,0.14,-0.18,0.009218,-0.257422,-8.173249,-3.008808,0.009218,-0.257422,0.004884,0.009603,0.000058,-0.002427
36.848000,-0.000100,-0.000600,0.01,0.00,0.001374,0.000047,-0.06,-0.29,-0.215720,-0.304682,-2.973942,2.195893,-0.215720,-0.304682,0.001374,0.000047,0.000001,-0.000311
36.882000,0.000100,-0.000900,-0.00,-0.01,-0.005575,-0.006970,-0.17,-0.20,-0.193010,-0.108102,3.442698,5.801145,-0.193010,-0.108102,-0.005575,-0.006970,0.000040,0.001829
36.915000,-0.000400,-0.001400,-0.01,-0.01,-0.008543,-0.007281,-0.08,0.02,0.018384,0.089796,5.802734,5.149245,0.018384,0.089796,-0.008543,-0.007281,0.000063,-0.000811
36.948000,-0.001100,-0.002000,-0.01,-0.01,-0.004804,-0.001640,0.08,0.20,0.201576,0.242047,1.328883,2.037088,0.201576,0.242047,-0.004804,-0.001640,0.000013,-0.001365
36.982000,-0.001300,-0.002200,-0.00,0.01,0.000472,0.006356,0.11,0.20,0.108748,0.228317,-4.748028,-4.738909,0.108748,0.228317,0.000472,0.006356,0.000020,0.001503
37.015000,-0.001000,-0.001500,0.00,0.01,0.000258,0.008874,-0.02,0.05,-0.121290,-0.080199,-5.234353,-6.598957,-0.121290,-0.080199,0.000258,0.008874,0.000039,-0.000743
37.048000,-0.000600,-0.000800,-0.00,0.01,-0.006006,0.003764,-0.16,-0.13,-0.247188,-0.220412,-0.179572,-0.829532,-0.247188,-0.220412,-0.006006,0.003764,0.000025,0.000655
37.082000,-0.000800,-0.000700,-0.01,-0.00,-0.012478,-0.002305,-0.13,-0.18,-0.133501,-0.136607,6.730490,3.002369,-0.133501,-0.136607,-0.012478,-0.002305,0.000081,0.001981
37.115000,-0.001800,-0.001100,-0.02,-0.01,-0.011169,-0.004904,0.06,-0.11,0.210485,-0.016250,6.604405,2.270342,0.210485,-0.016250,-0.011169,-0.004904,0.000074,-0.002271
37.148000,-0.002500,-0.001500,-0.01,-0.01,-0.002225,-0.004878,0.24,-0.06,0.315599,0.017776,-0.109765,-2.089530,0.315599,0.017776,-0.002225,-0.004878,0.000014,-0.000789
37.182000,-0.002400,-0.001500,0.01,-0.01,0.006591,-0.007268,0.26,-0.10,0.203021,-0.158339,-4.218123,-3.786270,0.203021,-0.158339,0.006591,-0.007268,0.000048,0.002489
37.215000,-0.001800,-0.001600,0.01,-0.01,0.010532,-0.014034,0.13,-0.19,0.028766,-0.239690,-4.113675,-1.403345,0.028766,-0.239690,0.010532,-0.014034,0.000154,0.003667
37.249000,-0.001200,-0.002100,0.01,-0.02,0.009717,-0.022423,-0.03,-0.23,-0.076709,-0.253766,-1.600656,2.103379,-0.076709,-0.253766,0.009717,-0.022423,0.000299,0.004945
37.282000,-0.000800,-0.003100,0.01,-0.03,0.007051,-0.028380,-0.11,-0.15,-0.080078,-0.096660,0.107724,4.781168,-0.080078,-0.096660,0.007051,-0.028380,0.000428,0.002179
37.315000,-0.000600,-0.004300,0.00,-0.03,0.004510,-0.028810,-0.10,0.04,-0.069384,0.071353,0.811291,5.599898,-0.069384,0.071353,0.004510,-0.028810,0.000425,-0.002369
37.349000,-0.000600,-0.005600,0.00,-0.03,0.002907,-0.022767,-0.06,0.22,-0.024910,0.284133,0.789237,3.214335,-0.024910,0.284133,0.002907,-0.022767,0.000263,-0.006541
37.382000,-0.000500,-0.006500,0.00,-0.02,0.002217,-0.013008,-0.01,0.30,-0.015716,0.289928,0.902822,-0.863209,-0.015716,0.289928,0.002217,-0.013008,0.000087,-0.003806
37.415000,-0.000400,-0.006700,0.00,-0.00,0.002570,-0.004247,0.05,0.27,0.036482,0.225435,1.978190,-2.788483,0.036482,0.225435,0.002570,-0.004247,0.000012,-0.000864
37.448000,-0.000500,-0.006400,0.00,0.00,0.005209,0.001291,0.09,0.21,0.118801,0.100311,1.116236,-0.184570,0.118801,0.100311,0.005209,0.001291,0.000014,0.000748
37.482000,-0.000400,-0.006400,0.01,0.01,0.009140,0.006615,0.09,0.16,0.112386,0.212884,-2.240555,0.564604,0.112386,0.212884,0.009140,0.006615,0.000064,0.002435
37.515000,0.000200,-0.006200,0.01,0.01,0.010480,0.012592,0.04,0.11,-0.033557,0.138704,-2.307612,-2.904976,-0.033557,0.138704,0.010480,0.012592,0.000134,0.001395
37.549000,0.000700,-0.005500,0.01,0.02,0.009152,0.015211,-0.02,0.04,-0.044532,0.015345,0.302085,-3.994445,-0.044532,0.015345,0.009152,0.015211,0.000158,-0.000174
37.582000,0.000900,-0.004600,0.01,0.02,0.008174,0.013212,-0.06,-0.03,-0.013015,-0.132918,-0.334254,-0.089791,-0.013015,-0.132918,0.008174,0.013212,0.000121,-0.001863
37.615000,0.001100,-0.004300,0.01,0.01,0.006809,0.011110,-0.10,-0.05,-0.067261,0.009240,-2.761654,2.287609,-0.067261,0.009240,0.006809,0.011110,0.000085,-0.000355
37.649000,0.001500,-0.004100,0.00,0.01,0.002252,0.011652,-0.15,-0.04,-0.200807,0.022640,-2.212165,-0.693810,-0.200807,0.022640,0.002252,0.011652,0.000070,-0.000188
37.682000,0.001700,-0.003700,-0.00,0.01,-0.004862,0.011392,-0.18,-0.05,-0.217688,-0.037939,1.927323,-2.066614,-0.217688,-0.037939,-0.004862,0.011392,0.000077,0.000626
37.715000,0.001300,-0.003100,-0.01,0.01,-0.009749,0.008743,-0.11,-0.06,-0.069749,-0.117890,5.041067,-0.036026,-0.069749,-0.117890,-0.009749,0.008743,0.000086,-0.000351
37.749000,0.000600,-0.002800,-0.01,0.01,-0.008808,0.006052,0.03,-0.03,0.125104,-0.040389,3.281624,3.677988,0.125104,-0.040389,-0.008808,0.006052,0.000057,-0.001346
37.782000,0.000200,-0.002900,-0.01,0.01,-0.004073,0.007613,0.14,0.05,0.153401,0.132213,-0.733110,1.879129,0.153401,0.132213,-0.004073,0.007613,0.000037,0.000382
37.815000,0.000100,-0.002800,-0.00,0.01,-0.000186,0.011346,0.11,0.06,0.075253,0.087392,-3.603676,-2.890219,0.075253,0.087392,-0.000186,0.011346,0.000064,0.000978
37.849000,0.000300,-0.002200,0.00,0.01,-0.000465,0.011738,-0.03,-0.03,-0.091649,-0.064322,-4.539203,-5.045033,-0.091649,-0.064322,-0.000465,0.011738,0.000069,-0.000712
37.882000,0.000600,-0.001400,-0.00,0.01,-0.005991,0.006298,-0.16,-0.14,-0.233413,-0.255671,-0.721079,-0.686475,-0.233413,-0.255671,-0.005991,0.006298,0.000038,-0.000212
37.915000,0.000400,-0.001300,-0.01,0.00,-0.012350,0.000065,-0.15,-0.15,-0.140682,-0.111002,4.423849,3.709244,-0.140682,-0.111002,-0.012350,0.000065,0.000076,0.001730
37.949000,-0.000400,-0.001600,-0.02,-0.00,-0.013596,-0.001881,-0.03,-0.06,0.067409,-0.003442,4.645556,3.048065,0.067409,-0.003442,-0.013596,-0.001881,0.000094,-0.000910
37.982000,-0.001200,-0.001900,-0.01,-0.00,-0.009471,-0.000303,0.10,0.03,0.175216,0.096266,1.087523,0.278128,0.175216,0.096266,-0.009471,-0.000303,0.000045,-0.001689
38.015000,-0.001400,-0.001800,-0.01,0.00,-0.004090,0.001597,0.18,0.06,0.141360,0.015471,-0.952690,-1.777882,0.141360,0.015471,-0.004090,0.001597,0.000010,-0.000553
38.049000,-0.001300,-0.001700,-0.00,0.00,0.000191,0.001441,0.19,-0.01,0.110433,-0.024630,0.234495,-2.158162,0.110433,-0.024630,0.000191,0.001441,0.000001,-0.000014
38.082000,-0.001400,-0.001600,0.01,0.00,0.004742,-0.001209,0.15,-0.12,0.157306,-0.131284,0.304346,-3.200278,0.157306,-0.131284,0.004742,-0.001209,0.000012,0.000905
38.115000,-0.001200,-0.001500,0.01,-0.01,0.009646,-0.007559,0.10,-0.21,0.131128,-0.242249,-2.878509,-1.317118,0.131128,-0.242249,0.009646,-0.007559,0.000075,0.003096
38.149000,-0.000500,-0.001700,0.01,-0.02,0.011222,-0.015432,0.05,-0.21,-0.038433,-0.220848,-2.125207,2.427439,-0.038433,-0.220848,0.011222,-0.015432,0.000182,0.002977
38.182000,-0.000100,-0.002500,0.01,-0.02,0.010341,-0.020499,-0.02,-0.12,-0.013386,-0.077183,-0.409908,4.425504,-0.013386,-0.077183,0.010341,-0.020499,0.000264,0.001444
38.216000,0.000200,-0.003600,0.01,-0.02,0.008986,-0.020449,-0.09,0.00,-0.066307,0.080086,-1.694654,2.414292,-0.066307,0.080086,0.008986,-0.020449,0.000249,-0.002234
38.249000,0.000600,-0.004300,0.01,-0.02,0.005672,-0.017609,-0.13,0.11,-0.128622,0.086989,-0.986828,0.715921,-0.128622,0.086989,0.005672,-0.017609,0.000171,-0.002261
38.282000,0.000900,-0.004800,0.00,-0.02,0.001217,-0.013941,-0.11,0.17,-0.133411,0.128769,1.885334,2.005860,-0.133411,0.128769,0.001217,-0.013941,0.000098,-0.001958
38.316000,0.000700,-0.005400,-0.00,-0.01,-0.001058,-0.007954,-0.04,0.21,-0.000420,0.223388,3.754134,1.301720,-0.000420,0.223388,-0.001058,-0.007954,0.000032,-0.001776
38.349000,0.000400,-0.005700,-0.00,-0.00,0.001007,-0.000463,0.05,0.18,0.121870,0.217286,0.939911,-3.053120,0.121870,0.217286,0.001007,-0.000463,0.000001,0.000022
38.382000,0.000500,-0.005400,0.00,0.01,0.004158,0.003499,0.10,0.08,0.063494,0.015775,-0.913839,-4.744373,0.063494,0.015775,0.004158,0.003499,0.000015,0.000319
38.416000,0.000700,-0.005000,0.01,0.01,0.006253,0.001977,0.09,-0.06,0.059729,-0.105332,-0.419700,-2.359695,0.059729,-0.105332,0.006253,0.001977,0.000022,0.000165
38.449000,0.001000,-0.004800,0.01,0.00,0.007863,-0.002274,0.04,-0.14,0.034955,-0.144684,-0.858324,0.300146,0.034955,-0.144684,0.007863,-0.002274,0.000033,0.000604
38.482000,0.001300,-0.005000,0.01,-0.01,0.008480,-0.006177,0.00,-0.13,0.001363,-0.084922,-1.061094,1.776967,0.001363,-0.084922,0.008480,-0.006177,0.000055,0.000536
38.516000,0.001600,-0.005400,0.01,-0.01,0.007871,-0.008026,-0.06,-0.06,-0.037200,-0.023850,-2.652151,1.618321,-0.037200,-0.023850,0.007871,-0.008026,0.000063,-0.000101
38.549000,0.002000,-0.005700,0.01,-0.01,0.004196,-0.008004,-0.13,0.02,-0.178983,0.025124,-1.678987,1.625994,-0.178983,0.025124,0.004196,-0.008004,0.000041,-0.000952
38.582000,0.002200,-0.006000,-0.00,-0.01,-0.001420,-0.006103,-0.16,0.10,-0.151371,0.086717,1.186346,2.024877,-0.151371,0.086717,-0.001420,-0.006103,0.000020,-0.000314
38.616000,0.002100,-0.006400,-0.01,-0.00,-0.005665,-0.001861,-0.11,0.13,-0.098312,0.162816,2.886209,0.396456,-0.098312,0.162816,-0.005665,-0.001861,0.000018,0.000254
38.649000,0.001500,-0.006400,-0.01,0.00,-0.006573,0.002839,-0.04,0.14,0.044891,0.113677,1.526849,-0.868580,0.044891,0.113677,-0.006573,0.002839,0.000026,0.000028
38.682000,0.001200,-0.006000,-0.01,0.01,-0.005716,0.006536,-0.01,0.22,0.005514,0.103752,-2.232806,6.281988,0.005514,0.103752,-0.005716,0.006536,0.000038,0.000647
38.716000,0.001300,-0.005800,-0.01,0.01,-0.007440,0.017494,-0.02,0.58,-0.106939,0.540852,-0.329682,18.712127,-0.106939,0.540852,-0.007440,0.017494,0.000181,0.010257
38.749000,0.001000,-0.005700,-0.01,0.03,-0.009546,0.050083,-0.01,1.30,-0.016904,1.376177,3.389324,26.428051,-0.016904,1.376177,-0.009546,0.050083,0.001300,0.069085
38.782000,0.000400,-0.004700,-0.01,0.09,-0.007733,0.113224,0.06,2.19,0.123535,2.337959,3.054211,22.364940,0.123535,2.337959,-0.007733,0.113224,0.006440,0.263757
38.816000,0.000100,-0.000900,-0.01,0.19,-0.002390,0.202218,0.17,2.87,0.190782,2.896993,1.285945,7.072053,0.190782,2.896993,-0.002390,0.202218,0.020449,0.585368
38.849000,0.000100,0.007100,0.00,0.30,0.004440,0.299387,0.24,2.99,0.210979,2.818859,0.511337,-10.783501,0.210979,2.818859,0.004440,0.299387,0.044826,0.844867
38.883000,0.000200,0.019300,0.01,0.40,0.011861,0.384091,0.21,2.44,0.225553,2.163715,-2.456746,-26.273300,0.225553,2.163715,0.011861,0.384091,0.073833,0.833739
38.916000,0.000800,0.034700,0.02,0.47,0.016442,0.438423,0.06,1.26,0.043920,1.032274,-6.472888,-40.099738,0.043920,1.032274,0.016442,0.438423,0.096242,0.453295
38.949000,0.001800,0.052000,0.02,0.49,0.013541,0.446399,-0.14,-0.40,-0.214603,-0.563068,-6.576813,-51.346453,-0.214603,-0.563068,0.013541,0.446399,0.099728,-0.254259
38.983000,0.002500,0.069400,0.01,0.45,0.003036,0.395019,-0.36,-2.31,-0.403303,-2.459284,-3.447085,-52.556996,-0.403303,-2.459284,0.003036,0.395019,0.078025,-0.972690
39.016000,0.002500,0.084300,-0.01,0.34,-0.011453,0.282884,-0.49,-4.05,-0.449005,-4.136943,-0.610537,-36.611291,-0.449005,-4.136943,-0.011453,0.282884,0.040077,-1.165131
39.049000,0.002000,0.093900,-0.03,0.17,-0.026648,0.128425,-0.49,-5.02,-0.444820,-4.948852,1.655977,-3.412165,-0.444820,-4.948852,-0.026648,0.128425,0.008602,-0.623703
39.083000,0.000800,0.096200,-0.04,-0.03,-0.039929,-0.029978,-0.37,-4.71,-0.336399,-4.368971,4.626713,35.733929,-0.336399,-4.368971,-0.039929,-0.029978,0.001246,0.144405
39.116000,-0.001100,0.091200,-0.05,-0.18,-0.047861,-0.147073,-0.20,-3.11,-0.130203,-2.518945,5.499588,61.784952,-0.130203,-2.518945,-0.047861,-0.147073,0.011960,0.376699
39.149000,-0.003000,0.081400,-0.06,-0.25,-0.049435,-0.192744,0.01,-0.80,0.037573,-0.167594,4.868055,61.201922,0.037573,-0.167594,-0.049435,-0.192744,0.019797,0.030445
39.183000,-0.004800,0.071200,-0.05,-0.23,-0.045383,-0.167665,0.23,1.29,0.200825,1.642786,5.544346,36.399502,0.200825,1.642786,-0.045383,-0.167665,0.015086,-0.284552
39.216000,-0.006700,0.064300,-0.04,-0.14,-0.034921,-0.100509,0.36,2.44,0.414589,2.307572,1.947423,5.665778,0.414589,2.307572,-0.034921,-0.100509,0.005661,-0.246410
39.249000,-0.007900,0.061700,-0.02,-0.04,-0.022207,-0.026804,0.33,2.42,0.333249,2.028059,-5.748115,-18.219801,0.333249,2.028059,-0.022207,-0.026804,0.000606,-0.061760
39.283000,-0.008100,0.062700,-0.01,0.04,-0.016139,0.025840,0.14,1.52,0.023717,1.068626,-8.054237,-29.867288,0.023717,1.068626,-0.016139,0.025840,0.000464,0.027231
39.316000,-0.008100,0.065800,-0.01,0.07,-0.019381,0.043957,-0.10,0.31,-0.214439,-0.002917,-4.208595,-29.216767,-0.214439,-0.002917,-0.019381,0.043957,0.001154,0.004028
39.349000,-0.008700,0.069100,-0.02,0.06,-0.027489,0.028300,-0.27,-0.71,-0.262467,-0.918114,-0.135603,-17.056108,-0.262467,-0.918114,-0.027489,0.028300,0.000778,-0.018767
39.383000,-0.009800,0.070400,-0.04,0.01,-0.035753,-0.007075,-0.31,-1.24,-0.223660,-1.162732,0.548102,-0.291358,-0.223660,-1.162732,-0.035753,-0.007075,0.000664,0.016223
39.416000,-0.011100,0.069700,-0.05,-0.04,-0.043383,-0.042786,-0.24,-1.15,-0.225197,-0.937927,2.188975,11.102242,-0.225197,-0.937927,-0.043383,-0.042786,0.001856,0.049900
39.449000,-0.012800,0.067400,-0.05,-0.08,-0.048483,-0.065663,-0.12,-0.58,-0.074809,-0.407780,3.212472,19.823729,-0.074809,-0.407780,-0.048483,-0.065663,0.003331,0.030403
39.483000,-0.014700,0.063700,-0.05,-0.08,-0.049870,-0.065624,-0.03,0.17,-0.006748,0.410087,1.960354,18.935793,-0.006748,0.410087,-0.049870,-0.065624,0.003397,-0.026575
39.516000,-0.016600,0.060500,-0.05,-0.06,-0.048990,-0.043695,0.02,0.73,0.058495,0.879854,-0.834042,4.975763,0.058495,0.879854,-0.048990,-0.043695,0.002155,-0.041311
39.550000,-0.018100,0.059200,-0.05,-0.02,-0.049075,-0.016014,-0.00,0.87,-0.063463,0.748439,-2.356552,-8.100025,-0.063463,0.748439,-0.049075,-0.016014,0.001332,-0.008871
39.583000,-0.019700,0.059400,-0.05,0.01,-0.051883,0.002303,-0.08,0.56,-0.101751,0.329052,-1.379856,-11.969927,-0.101751,0.329052,-0.051883,0.002303,0.001349,0.006037
39.616000,-0.021500,0.060400,-0.06,0.02,-0.056287,0.006784,-0.16,0.10,-0.157293,-0.065516,-1.682847,-8.221510,-0.157293,-0.065516,-0.056287,0.006784,0.001607,0.008409
39.649000,-0.023400,0.061300,-0.06,0.01,-0.062636,0.001760,-0.22,-0.18,-0.216184,-0.230010,-1.358541,-1.457037,-0.216184,-0.230010,-0.062636,0.001760,0.001963,0.013136
39.683000,-0.025500,0.061100,-0.07,-0.00,-0.070556,-0.004949,-0.25,-0.28,-0.249674,-0.164595,-0.294875,0.083089,-0.249674,-0.164595,-0.070556,-0.004949,0.002501,0.018431
39.716000,-0.028100,0.060500,-0.08,-0.01,-0.078816,-0.011561,-0.26,-0.37,-0.236236,-0.224360,0.360498,-6.165622,-0.236236,-0.224360,-0.078816,-0.011561,0.003173,0.021213
39.749000,-0.031000,0.060600,-0.09,-0.02,-0.086660,-0.025301,-0.28,-0.46,-0.225160,-0.583857,-1.049175,-5.042183,-0.225160,-0.583857,-0.086660,-0.025301,0.004075,0.034284
39.783000,-0.033900,0.060000,-0.10,-0.04,-0.095717,-0.044869,-0.27,-0.44,-0.307580,-0.567229,-0.114780,8.733159,-0.307580,-0.567229,-0.095717,-0.044869,0.005587,0.054892
39.816000,-0.037300,0.057600,-0.11,-0.06,-0.104906,-0.054342,-0.23,-0.18,-0.232965,0.009998,2.774323,14.820672,-0.232965,0.009998,-0.104906,-0.054342,0.006979,0.023896
39.850000,-0.041200,0.054800,-0.11,-0.06,-0.110888,-0.046682,-0.19,0.21,-0.118926,0.440577,0.655280,5.621819,-0.118926,0.440577,-0.110888,-0.046682,0.007238,-0.007380
39.883000,-0.045200,0.053000,-0.12,-0.04,-0.116113,-0.032524,-0.22,0.40,-0.188406,0.392281,-4.092895,-4.861797,-0.188406,0.392281,-0.116113,-0.032524,0.007270,0.009118
39.916000,-0.049100,0.052400,-0.12,-0.02,-0.126069,-0.023985,-0.38,0.26,-0.397243,0.109975,-7.357657,-8.566253,-0.397243,0.109975,-0.126069,-0.023985,0.008234,0.047442
39.950000,-0.053100,0.052300,-0.14,-0.02,-0.144530,-0.025350,-0.58,-0.01,-0.688727,-0.190224,-3.180560,-4.358234,-0.688727,-0.190224,-0.144530,-0.025350,0.010766,0.104364
39.983000,-0.058100,0.051500,-0.17,-0.03,-0.166668,-0.031752,-0.63,-0.21,-0.613521,-0.186385,3.756216,-0.245878,-0.613521,-0.186385,-0.166668,-0.031752,0.014393,0.108173
40.016000,-0.064300,0.050200,-0.19,-0.04,-0.184464,-0.038438,-0.51,-0.29,-0.433304,-0.206943,7.516731,-1.191397,-0.433304,-0.206943,-0.184464,-0.038438,0.017752,0.087884
40.050000,-0.071400,0.048900,-0.20,-0.05,-0.193571,-0.046502,-0.26,-0.27,-0.102383,-0.267400,6.331298,0.820567,-0.102383,-0.267400,-0.193571,-0.046502,0.019816,0.032253
40.083000,-0.078200,0.047400,-0.21,-0.06,-0.195359,-0.053618,0.01,-0.09,-0.002776,-0.151145,4.428230,9.055164,-0.002776,-0.151145,-0.195359,-0.053618,0.020520,0.008646
40.116000,-0.085000,0.045100,-0.20,-0.06,-0.192028,-0.050265,0.23,0.27,0.198736,0.348351,5.397638,14.367307,0.198736,0.348351,-0.192028,-0.050265,0.019701,-0.055673
40.150000,-0.091900,0.042600,-0.19,-0.04,-0.182457,-0.030304,0.31,0.65,0.364263,0.825832,-0.694603,6.660038,0.364263,0.825832,-0.182457,-0.030304,0.017104,-0.091488
40.183000,-0.098100,0.041400,-0.18,-0.01,-0.173689,-0.002644,0.15,0.78,0.151503,0.801233,-10.877400,-6.884546,0.151503,0.801233,-0.173689,-0.002644,0.015087,-0.028433
40.216000,-0.103300,0.042200,-0.17,0.02,-0.177495,0.017058,-0.22,0.54,-0.375400,0.357683,-12.953838,-13.606860,-0.375400,0.357683,-0.177495,0.017058,0.015898,0.072733
40.250000,-0.108600,0.043900,-0.19,0.03,-0.196276,0.021030,-0.55,0.13,-0.729358,-0.124033,-1.851648,-7.655685,-0.729358,-0.124033,-0.196276,0.021030,0.019483,0.140547
40.283000,-0.115400,0.044900,-0.22,0.02,-0.217197,0.016152,-0.55,-0.16,-0.501312,-0.162904,10.465793,0.908716,-0.501312,-0.162904,-0.217197,0.016152,0.023718,0.106252
40.317000,-0.123700,0.045400,-0.24,0.01,-0.226020,0.012324,-0.21,-0.15,-0.017684,-0.062240,13.520975,4.812136,-0.017684,-0.062240,-0.226020,0.012324,0.025618,0.003230
40.350000,-0.132300,0.045600,-0.23,0.01,-0.219213,0.014060,0.19,0.07,0.418114,0.164321,3.997795,6.042016,0.418114,0.164321,-0.219213,0.014060,0.024126,-0.089346
40.383000,-0.139800,0.045700,-0.22,0.02,-0.207784,0.022780,0.28,0.29,0.254166,0.348617,-9.165489,4.353296,0.254166,0.348617,-0.207784,0.022780,0.021847,-0.044870
40.416000,-0.146500,0.046400,-0.20,0.03,-0.206950,0.036532,-0.10,0.46,-0.205139,0.460346,-17.399039,2.368619,-0.205139,0.460346,-0.206950,0.036532,0.022082,0.059271
40.450000,-0.152700,0.048100,-0.22,0.05,-0.226230,0.053023,-0.71,0.64,-0.928968,0.509683,-14.816525,5.784815,-0.928968,0.509683,-0.226230,0.053023,0.026996,0.237185
40.483000,-0.159700,0.049900,-0.26,0.07,-0.262638,0.076200,-1.07,0.86,-1.212663,0.853713,2.475573,9.203739,-1.212663,0.853713,-0.262638,0.076200,0.037393,0.383544
40.517000,-0.169100,0.052200,-0.30,0.11,-0.296184,0.110018,-0.86,1.02,-0.760629,1.135537,20.205540,1.225957,-0.760629,1.135537,-0.296184,0.110018,0.049914,0.350215
40.550000,-0.181000,0.056400,-0.33,0.15,-0.306372,0.145252,-0.23,0.95,0.161314,0.937078,20.105920,-11.619136,0.161314,0.937078,-0.306372,0.145252,0.057481,0.086690
40.583000,-0.192700,0.062500,-0.32,0.18,-0.293318,0.167055,0.37,0.58,0.606573,0.345436,4.386329,-14.241526,0.606573,0.345436,-0.293318,0.167055,0.056971,-0.120212
40.617000,-0.202400,0.069200,-0.29,0.19,-0.275194,0.172394,0.64,0.10,0.459584,-0.031346,-2.702679,-8.974606,0.459584,-0.031346,-0.275194,0.172394,0.052726,-0.131878
40.650000,-0.211100,0.075700,-0.27,0.18,-0.260193,0.167359,0.67,-0.23,0.422791,-0.264837,3.460946,-3.445310,0.422791,-0.264837,-0.260193,0.167359,0.047855,-0.154330
40.683000,-0.219900,0.081200,-0.25,0.17,-0.241192,0.158341,0.70,-0.43,0.694929,-0.265627,6.487054,-4.614256,0.694929,-0.265627,-0.241192,0.158341,0.041623,-0.209671
40.717000,-0.228300,0.086400,-0.22,0.15,-0.214692,0.143989,0.77,-0.69,0.863911,-0.578607,-0.250203,-12.792477,0.863911,-0.578607,-0.214692,0.143989,0.033413,-0.268788
40.750000,-0.235200,0.091700,-0.19,0.13,-0.188481,0.114849,0.71,-1.05,0.677915,-1.135515,-8.077493,-12.442136,0.677915,-1.135515,-0.188481,0.114849,0.024358,-0.258187
40.783000,-0.240600,0.096000,-0.17,0.08,-0.171607,0.071326,0.51,-1.31,0.314641,-1.424672,-6.264467,-0.177341,0.314641,-1.424672,-0.171607,0.071326,0.017268,-0.155611
40.817000,-0.245800,0.097700,-0.16,0.03,-0.161975,0.027598,0.33,-1.28,0.251931,-1.147574,1.002034,9.345970,0.251931,-1.147574,-0.161975,0.027598,0.013499,-0.072477
40.850000,-0.251300,0.097100,-0.15,-0.01,-0.151185,-0.005326,0.30,-1.07,0.382779,-0.789146,2.515288,5.556533,0.382779,-0.789146,-0.151185,-0.005326,0.011443,-0.053667
40.883000,-0.256500,0.096100,-0.14,-0.04,-0.137488,-0.031827,0.33,-0.86,0.422971,-0.769730,-1.958050,-0.908610,0.422971,-0.769730,-0.137488,-0.031827,0.009958,-0.033655
40.917000,-0.260800,0.095100,-0.13,-0.06,-0.126053,-0.059379,0.28,-0.67,0.249632,-0.850932,-5.631735,5.863194,0.249632,-0.850932,-0.126053,-0.059379,0.009708,0.019060
40.950000,-0.264600,0.092400,-0.12,-0.09,-0.121129,-0.080152,0.13,-0.40,0.040013,-0.371033,-4.233280,14.607228,0.040013,-0.371033,-0.121129,-0.080152,0.010548,0.024892
40.983000,-0.268500,0.088300,-0.12,-0.10,-0.121099,-0.084039,-0.03,-0.11,-0.038231,0.142360,-1.856192,6.592075,-0.038231,0.142360,-0.121099,-0.084039,0.010864,-0.007334
41.017000,-0.272500,0.084900,-0.12,-0.09,-0.123215,-0.080306,-0.10,0.01,-0.086208,0.077228,0.257223,-7.703977,-0.086208,0.077228,-0.123215,-0.080306,0.010815,0.004420
41.050000,-0.276700,0.082900,-0.13,-0.08,-0.125033,-0.085479,-0.06,-0.14,-0.020740,-0.381510,1.217663,-8.878240,-0.020740,-0.381510,-0.125033,-0.085479,0.011470,0.035204
41.083000,-0.281100,0.080500,-0.13,-0.10,-0.125443,-0.100915,-0.01,-0.33,-0.003407,-0.526492,1.093904,2.960905,-0.003407,-0.526492,-0.125443,-0.100915,0.012960,0.053559
41.117000,-0.285500,0.076500,-0.13,-0.12,-0.124589,-0.112928,0.02,-0.30,0.053646,-0.180169,-0.038784,9.614904,0.053646,-0.180169,-0.124589,-0.112928,0.014138,0.013663
41.150000,-0.289500,0.072000,-0.13,-0.12,-0.123780,-0.113827,0.06,-0.04,-0.006044,0.127321,1.023944,6.124396,-0.006044,0.127321,-0.123780,-0.113827,0.014139,-0.013744
41.184000,-0.293800,0.067900,-0.12,-0.12,-0.121787,-0.107646,0.11,0.24,0.123274,0.236290,2.708464,3.683329,0.123274,0.236290,-0.121787,-0.107646,0.013210,-0.040449
41.217000,-0.298200,0.064200,-0.12,-0.10,-0.116663,-0.097206,0.12,0.41,0.178131,0.377788,-1.074112,3.330801,0.178131,0.377788,-0.116663,-0.097206,0.011530,-0.057505
41.250000,-0.302000,0.061000,-0.11,-0.09,-0.112781,-0.082916,0.06,0.52,0.050234,0.462785,-4.604126,3.501270,0.050234,0.462785,-0.112781,-0.082916,0.009797,-0.044038
41.283000,-0.305400,0.058200,-0.11,-0.07,-0.114221,-0.064579,-0.03,0.58,-0.134950,0.615874,-2.006486,0.290588,-0.134950,0.615874,-0.114221,-0.064579,0.008608,-0.024359
41.317000,-0.309300,0.056200,-0.12,-0.05,-0.117981,-0.045906,-0.09,0.52,-0.086207,0.482545,2.502614,-5.092632,-0.086207,0.482545,-0.117981,-0.045906,0.008013,-0.011981
41.350000,-0.313500,0.055100,-0.12,-0.03,-0.118847,-0.033120,-0.05,0.31,0.035228,0.269575,1.354823,-8.221129,0.035228,0.269575,-0.118847,-0.033120,0.007611,-0.013115
41.384000,-0.317600,0.054800,-0.12,-0.02,-0.118148,-0.029838,0.01,0.08,0.005921,-0.076492,0.006839,-4.551208,0.005921,-0.076492,-0.118148,-0.029838,0.007425,0.001583
41.417000,-0.321700,0.054000,-0.12,-0.03,-0.117440,-0.031817,0.02,-0.04,0.035693,-0.039907,-0.833169,1.899705,0.035693,-0.039907,-0.117440,-0.031817,0.007402,-0.002922
41.450000,-0.325500,0.052700,-0.12,-0.03,-0.117696,-0.031599,0.01,-0.03,-0.050734,0.052688,0.498346,2.526398,-0.050734,0.052688,-0.117696,-0.031599,0.007425,0.004306
41.484000,-0.329500,0.051500,-0.12,-0.03,-0.117376,-0.028461,0.07,0.07,0.069581,0.131888,4.184647,1.373751,0.069581,0.131888,-0.117376,-0.028461,0.007294,-0.011921
41.517000,-0.333700,0.050700,-0.12,-0.03,-0.112218,-0.023736,0.19,0.20,0.233822,0.146103,4.384882,3.194295,0.233822,0.146103,-0.112218,-0.023736,0.006578,-0.029707
41.550000,-0.337700,0.049800,-0.11,-0.02,-0.101991,-0.015317,0.32,0.33,0.367753,0.349100,1.216232,4.789769,0.367753,0.349100,-0.101991,-0.015317,0.005318,-0.042855
41.584000,-0.341000,0.049100,-0.09,-0.00,-0.090358,-0.001362,0.38,0.41,0.316525,0.471807,-0.762661,0.482587,0.316525,0.471807,-0.090358,-0.001362,0.004083,-0.029243
41.617000,-0.343800,0.049200,-0.08,0.01,-0.079607,0.013152,0.38,0.38,0.315892,0.381916,0.711663,-5.057905,0.315892,0.381916,-0.079607,0.013152,0.003255,-0.020124
41.650000,-0.346300,0.050200,-0.07,0.03,-0.068033,0.021818,0.39,0.24,0.364918,0.127870,2.323748,-5.427048,0.364918,0.127870,-0.068033,0.021818,0.002552,-0.022037
41.684000,-0.348600,0.051400,-0.06,0.03,-0.053773,0.024211,0.42,0.09,0.473907,0.012877,-0.130166,-1.111425,0.473907,0.012877,-0.053773,0.024211,0.001739,-0.025172
41.717000,-0.350300,0.052300,-0.04,0.03,-0.039664,0.025318,0.33,0.03,0.356067,0.052293,-7.267214,1.454525,0.356067,0.052293,-0.039664,0.025318,0.001107,-0.012799
41.750000,-0.351200,0.053000,-0.03,0.03,-0.033955,0.028108,0.04,0.03,-0.020264,0.111784,-12.682113,-0.578884,-0.020264,0.111784,-0.033955,0.028108,0.000972,0.003830
41.784000,-0.351600,0.054000,-0.03,0.03,-0.042907,0.030228,-0.36,0.01,-0.506317,0.012929,-9.473541,-3.458443,-0.506317,0.012929,-0.042907,0.030228,0.001377,0.022115
41.817000,-0.352600,0.055300,-0.06,0.03,-0.062810,0.028350,-0.57,-0.05,-0.664465,-0.123390,3.940202,-1.308955,-0.664465,-0.123390,-0.062810,0.028350,0.002374,0.038237
41.851000,-0.355100,0.056400,-0.08,0.03,-0.078159,0.024959,-0.34,-0.03,-0.238383,-0.076080,16.675646,4.718019,-0.238383,-0.076080,-0.078159,0.024959,0.003366,0.016733
41.884000,-0.358800,0.057000,-0.09,0.02,-0.074230,0.027022,0.24,0.13,0.469479,0.197435,17.429461,7.564921,0.469479,0.197435,-0.074230,0.027022,0.003120,-0.029514
41.917000,-0.362300,0.057500,-0.07,0.03,-0.050153,0.037830,0.75,0.34,0.946821,0.438334,4.412049,3.743337,0.946821,0.438334,-0.050153,0.037830,0.001973,-0.030904
41.950000,-0.363900,0.058700,-0.03,0.05,-0.020976,0.052966,0.83,0.42,0.769499,0.451982,-10.989302,-4.263944,0.769499,0.451982,-0.020976,0.052966,0.001623,0.007799
41.984000,-0.363500,0.061000,0.00,0.07,-0.004502,0.063172,0.46,0.28,0.199548,0.148386,-15.301718,-7.719579,0.199548,0.148386,-0.004502,0.063172,0.002005,0.008475
42.017000,-0.362600,0.063700,0.01,0.07,-0.005717,0.064454,-0.05,0.04,-0.271018,-0.072949,-7.774197,-4.329502,-0.271018,-0.072949,-0.005717,0.064454,0.002094,-0.003153
42.050000,-0.362500,0.066200,-0.01,0.07,-0.015919,0.060732,-0.34,-0.11,-0.329097,-0.146020,1.666600,0.536090,-0.329097,-0.146020,-0.015919,0.060732,0.001971,-0.003629
42.084000,-0.363200,0.068100,-0.03,0.06,-0.024194,0.057629,-0.26,-0.13,-0.157689,-0.036495,7.250946,1.700013,-0.157689,-0.036495,-0.024194,0.057629,0.001953,0.001712
42.117000,-0.364500,0.069800,-0.03,0.06,-0.024087,0.056492,0.03,-0.10,0.163967,-0.030419,7.846933,-1.111474,0.163967,-0.030419,-0.024087,0.056492,0.001886,-0.005668
42.151000,-0.365800,0.071800,-0.02,0.06,-0.014910,0.054069,0.29,-0.11,0.375902,-0.112075,2.940358,-2.870226,0.375902,-0.112075,-0.014910,0.054069,0.001573,-0.011664
42.184000,-0.366300,0.073900,-0.01,0.05,-0.002333,0.048329,0.37,-0.15,0.363911,-0.225594,-3.290659,-0.663617,0.363911,-0.225594,-0.002333,0.048329,0.001171,-0.011752
42.217000,-0.365900,0.075300,0.01,0.04,0.006440,0.041821,0.28,-0.21,0.152137,-0.157201,-4.510856,0.047094,0.152137,-0.157201,0.006440,0.041821,0.000895,-0.005595
42.251000,-0.365400,0.076500,0.01,0.04,0.009998,0.035368,0.11,-0.28,0.057173,-0.222392,-3.420478,-3.707137,0.057173,-0.222392,0.009998,0.035368,0.000675,-0.007294
42.284000,-0.364900,0.077900,0.01,0.03,0.009602,0.024630,-0.07,-0.37,-0.080455,-0.409286,-3.654137,-4.426413,-0.080455,-0.409286,0.009602,0.024630,0.000349,-0.010853
42.317000,-0.364400,0.078800,0.01,0.01,0.004982,0.008774,-0.19,-0.47,-0.191308,-0.523388,-2.027193,-0.083456,-0.191308,-0.523388,0.004982,0.008774,0.000051,-0.005545
42.351000,-0.364100,0.078700,-0.00,-0.01,-0.001981,-0.007178,-0.19,-0.50,-0.218304,-0.414961,2.869517,2.004648,-0.218304,-0.414961,-0.001981,-0.007178,0.000028,0.003411
42.384000,-0.364400,0.078200,-0.01,-0.02,-0.005627,-0.020812,-0.06,-0.41,0.003819,-0.387072,6.077018,3.288514,0.003819,-0.387072,-0.005627,-0.020812,0.000232,0.008034
42.417000,-0.365000,0.077200,-0.01,-0.04,-0.002248,-0.030645,0.11,-0.23,0.194933,-0.191342,3.399292,5.546689,0.194933,-0.191342,-0.002248,-0.030645,0.000472,0.005425
42.450000,-0.365300,0.075700,0.00,-0.04,0.005060,-0.034066,0.18,-0.04,0.234971,-0.009897,-3.085111,5.076917,0.234971,-0.009897,0.005060,-0.034066,0.000593,0.001526
42.484000,-0.364800,0.074100,0.01,-0.04,0.008802,-0.031619,0.08,0.08,-0.014855,0.153888,-6.096290,0.286443,-0.014855,0.153888,0.008802,-0.031619,0.000539,-0.004996
42.518000,-0.364100,0.073200,0.01,-0.03,0.005497,-0.028840,-0.08,0.09,-0.179577,0.009581,-2.166301,-2.710490,-0.179577,0.009581,0.005497,-0.028840,0.000431,-0.001263
42.551000,-0.363800,0.072400,0.00,-0.03,-0.000313,-0.029194,-0.16,0.05,-0.162163,-0.030425,1.803239,0.656105,-0.162163,-0.030425,-0.000313,-0.029194,0.000426,0.000939
42.584000,-0.364100,0.071400,-0.00,-0.03,-0.004038,-0.028790,-0.14,0.03,-0.056957,0.054196,1.847692,1.565805,-0.056957,0.054196,-0.004038,-0.028790,0.000423,-0.001330
42.617000,-0.364500,0.070300,-0.01,-0.03,-0.005627,-0.026576,-0.10,0.04,-0.036520,0.076049,-1.723759,-0.053727,-0.036520,0.076049,-0.005627,-0.026576,0.000369,-0.001816
42.651000,-0.364500,0.069300,-0.01,-0.02,-0.009209,-0.024424,-0.10,0.01,-0.174172,0.050543,-1.463502,-3.776415,-0.174172,0.050543,-0.009209,-0.024424,0.000341,0.000369
42.684000,-0.364700,0.068800,-0.01,-0.02,-0.014482,-0.026637,-0.07,-0.10,-0.136038,-0.180747,4.345308,-4.666785,-0.136038,-0.180747,-0.014482,-0.026637,0.000460,0.006785
42.717000,-0.365500,0.068100,-0.02,-0.03,-0.014733,-0.034245,0.04,-0.21,0.121309,-0.266799,5.780864,-0.135065,0.121309,-0.266799,-0.014733,-0.034245,0.000695,0.007349
42.751000,-0.366400,0.066800,-0.01,-0.04,-0.008301,-0.042010,0.17,-0.21,0.257061,-0.189931,1.263650,3.440142,0.257061,-0.189931,-0.008301,-0.042010,0.000917,0.005845
42.784000,-0.366700,0.065100,-0.00,-0.05,-0.000408,-0.045797,0.20,-0.09,0.207237,-0.032869,-3.914455,5.003319,0.207237,-0.032869,-0.000408,-0.045797,0.001049,0.001421
42.817000,-0.366200,0.063300,0.00,-0.05,0.002960,-0.043801,0.12,0.11,-0.009122,0.150295,-3.410116,5.011627,-0.009122,0.150295,0.002960,-0.043801,0.000964,-0.006610
42.851000,-0.365900,0.061600,0.01,-0.04,0.002386,-0.036012,0.04,0.27,-0.024651,0.307922,1.959576,2.305225,-0.024651,0.307922,0.002386,-0.036012,0.000651,-0.011148
42.884000,-0.366000,0.060300,0.00,-0.03,0.004077,-0.025557,0.04,0.32,0.124129,0.307050,1.666446,-1.536818,0.124129,0.307050,0.004077,-0.025557,0.000335,-0.007341
42.918000,-0.365900,0.059700,0.01,-0.02,0.007695,-0.016879,0.06,0.26,0.088667,0.203418,-1.515888,-3.264292,0.088667,0.203418,0.007695,-0.016879,0.000172,-0.002751
42.951000,-0.365600,0.059600,0.01,-0.01,0.009560,-0.011975,0.03,0.20,0.021049,0.085078,-2.731200,0.259928,0.021049,0.085078,0.009560,-0.011975,0.000117,-0.000818
42.984000,-0.365000,0.059200,0.01,-0.01,0.008268,-0.006770,-0.04,0.20,-0.097054,0.221093,-1.555938,3.103655,-0.097054,0.221093,0.008268,-0.006770,0.000057,-0.002299
43.017000,-0.364600,0.058800,0.01,0.00,0.005177,0.002023,-0.06,0.23,-0.084755,0.296127,2.253792,0.136552,-0.084755,0.296127,0.005177,0.002023,0.000015,0.000160
43.051000,-0.364700,0.059000,0.00,0.01,0.004692,0.010974,-0.02,0.21,0.056204,0.230379,2.448557,-4.336483,0.056204,0.230379,0.004692,0.010974,0.000071,0.002792
43.084000,-0.364700,0.059800,0.01,0.02,0.007037,0.014911,0.02,0.11,0.081747,0.001246,-1.760545,-3.668304,0.081747,0.001246,0.007037,0.014911,0.000136,0.000594
43.118000,-0.364300,0.060500,0.01,0.02,0.007347,0.014608,-0.02,-0.01,-0.063513,-0.019066,-3.701737,-0.698064,-0.063513,-0.019066,0.007347,0.014608,0.000134,-0.000745
43.151000,-0.363900,0.061100,0.01,0.01,0.003378,0.013498,-0.12,-0.04,-0.169972,-0.046223,-2.394538,1.604520,-0.169972,-0.046223,0.003378,0.013498,0.000097,-0.001198
43.184000,-0.363700,0.061400,-0.00,0.01,-0.003360,0.014243,-0.22,0.04,-0.226342,0.090041,-0.379978,3.331414,-0.226342,0.090041,-0.003360,0.014243,0.000107,0.002043
43.218000,-0.363900,0.061800,-0.01,0.02,-0.010536,0.018839,-0.22,0.16,-0.195810,0.180313,1.657806,2.306813,-0.195810,0.180313,-0.010536,0.018839,0.000233,0.005460
43.251000,-0.364500,0.062400,-0.02,0.02,-0.015796,0.026102,-0.16,0.24,-0.113611,0.246905,1.909151,0.303637,-0.113611,0.246905,-0.015796,0.026102,0.000465,0.008239
43.284000,-0.365200,0.063300,-0.02,0.03,-0.018850,0.033716,-0.07,0.20,-0.065988,0.200961,2.078651,-3.381330,-0.065988,0.200961,-0.018850,0.033716,0.000746,0.008019
43.318000,-0.365900,0.064700,-0.02,0.04,-0.019500,0.037421,0.05,0.04,0.027737,0.016974,3.632949,-6.873625,0.027737,0.016974,-0.019500,0.037421,0.000890,0.000094
43.351000,-0.366700,0.066400,-0.02,0.04,-0.015950,0.033180,0.18,-0.17,0.181053,-0.266446,4.132271,-4.889497,0.181053,-0.266446,-0.015950,0.033180,0.000678,-0.011728
43.384000,-0.367500,0.067700,-0.01,0.03,-0.007624,0.023286,0.26,-0.31,0.308731,-0.315512,0.870158,-0.264340,0.308731,-0.315512,-0.007624,0.023286,0.000300,-0.009701
43.418000,-0.367700,0.068400,0.00,0.01,0.001708,0.013087,0.23,-0.30,0.240224,-0.284421,-4.678847,3.169455,0.240224,-0.284421,0.001708,0.013087,0.000087,-0.003312
43.451000,-0.367200,0.068400,0.01,0.00,0.005632,0.006552,0.09,-0.20,-0.009430,-0.099989,-5.299277,3.664524,-0.009430,-0.099989,0.005632,0.006552,0.000037,-0.000708
43.484000,-0.366700,0.068400,0.01,0.00,0.003429,0.004254,-0.06,-0.07,-0.120127,-0.035233,-1.663021,1.775064,-0.120127,-0.035233,0.003429,0.004254,0.000015,-0.000562
43.518000,-0.366500,0.068500,0.00,0.00,-0.000696,0.004007,-0.14,0.03,-0.122516,0.020716,0.747820,1.330643,-0.122516,0.020716,-0.000696,0.004007,0.000008,0.000168
43.551000,-0.366700,0.068500,-0.00,0.00,-0.003956,0.005298,-0.12,0.05,-0.069276,0.055251,1.331624,-0.330472,-0.069276,0.055251,-0.003956,0.005298,0.000022,0.000567
43.585000,-0.367000,0.068600,-0.01,0.01,-0.005677,0.006208,-0.07,-0.01,-0.031965,-0.001757,0.134551,-3.225665,-0.031965,-0.001757,-0.005677,0.006208,0.000035,0.000171
43.618000,-0.367100,0.069100,-0.01,0.01,-0.007243,0.003388,-0.02,-0.10,-0.060126,-0.164095,0.880430,-3.985050,-0.060126,-0.164095,-0.007243,0.003388,0.000032,-0.000121
43.651000,-0.367400,0.069400,-0.01,-0.00,-0.007791,-0.004038,0.05,-0.21,0.027904,-0.272740,3.773547,-0.565718,0.027904,-0.272740,-0.007791,-0.004038,0.000038,0.000884
43.685000,-0.367900,0.069000,-0.01,-0.01,-0.003976,-0.012118,0.15,-0.28,0.196475,-0.202564,3.319933,0.301651,0.196475,-0.202564,-0.003976,-0.012118,0.000081,0.001673
43.718000,-0.368100,0.068500,0.00,-0.02,0.003676,-0.019850,0.23,-0.26,0.253660,-0.252228,-0.089889,0.804079,0.253660,-0.252228,0.003676,-0.019850,0.000204,0.005939
43.751000,-0.367900,0.067800,0.01,-0.03,0.011225,-0.026651,0.20,-0.16,0.190363,-0.147886,-3.914132,4.000694,0.190363,-0.147886,0.011225,-0.026651,0.000418,0.006078
43.785000,-0.367300,0.066600,0.02,-0.03,0.014248,-0.028829,0.03,0.00,-0.012501,0.019820,-6.603968,5.889336,-0.012501,0.019820,0.014248,-0.028829,0.000517,-0.000749
43.818000,-0.366400,0.065100,0.01,-0.03,0.009638,-0.024198,-0.19,0.13,-0.258707,0.252589,-5.145377,1.436316,-0.258707,0.252589,0.009638,-0.024198,0.000339,-0.008605
43.851000,-0.365800,0.064400,0.00,-0.02,-0.000921,-0.017906,-0.30,0.17,-0.362387,0.117489,1.222114,-3.655576,-0.362387,0.117489,-0.000921,-0.017906,0.000161,-0.001770
43.885000,-0.366100,0.064100,-0.01,-0.01,-0.010067,-0.015841,-0.25,0.10,-0.175603,0.004009,5.918821,-1.854034,-0.175603,0.004009,-0.010067,-0.015841,0.000176,0.001704
43.918000,-0.366900,0.063700,-0.02,-0.01,-0.012371,-0.015919,-0.06,0.02,0.040093,-0.008585,5.430606,0.141844,0.040093,-0.008585,-0.012371,-0.015919,0.000203,-0.000359
43.951000,-0.367600,0.063100,-0.01,-0.02,-0.008396,-0.015832,0.14,-0.01,0.193678,0.013655,2.103594,0.562725,0.193678,0.013655,-0.008396,-0.015832,0.000161,-0.001842
43.985000,-0.367900,0.062500,-0.00,-0.02,-0.001991,-0.015096,0.21,-0.01,0.183137,0.029680,-1.500593,-1.154707,0.183137,0.029680,-0.001991,-0.015096,0.000116,-0.000813
44.018000,-0.367900,0.062100,0.00,-0.01,0.002681,-0.015694,0.14,-0.04,0.091638,-0.064865,-3.503883,-1.582821,0.091638,-0.064865,0.002681,-0.015694,0.000127,0.001264
44.051000,-0.367500,0.061600,0.01,-0.02,0.003301,-0.018122,0.00,-0.07,-0.055127,-0.077952,-3.802395,-0.032210,-0.055127,-0.077952,0.003301,-0.018122,0.000170,0.001231
44.085000,-0.367100,0.061000,0.00,-0.02,-0.000474,-0.020587,-0.11,-0.06,-0.166925,-0.067055,-0.581645,2.063076,-0.166925,-0.067055,-0.000474,-0.020587,0.000212,0.001460
44.118000,-0.367300,0.060200,-0.00,-0.02,-0.004921,-0.020667,-0.15,0.05,-0.094679,0.062337,1.813597,4.578928,-0.094679,0.062337,-0.004921,-0.020667,0.000226,-0.000822
44.151000,-0.367600,0.059300,-0.01,-0.02,-0.007272,-0.015454,-0.09,0.22,-0.043601,0.244312,2.325551,5.347451,-0.043601,0.244312,-0.007272,-0.015454,0.000146,-0.003459
44.185000,-0.367800,0.058600,-0.01,-0.01,-0.006934,-0.004059,0.08,0.39,0.063459,0.425964,5.354353,3.138554,0.063459,0.425964,-0.006934,-0.004059,0.000032,-0.002169
44.218000,-0.368300,0.058500,-0.01,0.01,-0.000407,0.010963,0.28,0.47,0.320495,0.457733,5.944480,-0.069823,0.320495,0.457733,-0.000407,0.010963,0.000060,0.004888
44.251000,-0.368700,0.059100,0.01,0.03,0.012992,0.025906,0.39,0.45,0.467683,0.421216,-0.449109,-3.092928,0.467683,0.421216,0.012992,0.025906,0.000420,0.016988
44.285000,-0.368000,0.060400,0.03,0.04,0.025872,0.037272,0.33,0.33,0.289956,0.247414,-7.352983,-4.131508,0.289956,0.247414,0.025872,0.037272,0.001029,0.016723
44.318000,-0.366400,0.062000,0.04,0.05,0.030252,0.043863,0.13,0.16,-0.032320,0.140273,-5.964844,-4.384411,-0.032320,0.140273,0.030252,0.043863,0.001420,0.005175
44.351000,-0.365100,0.063800,0.03,0.05,0.027736,0.045385,-0.09,-0.01,-0.115653,-0.050726,-2.007615,-4.175613,-0.115653,-0.050726,0.027736,0.045385,0.001415,-0.005510
44.385000,-0.364200,0.065500,0.03,0.05,0.022900,0.042081,-0.22,-0.16,-0.168838,-0.143668,-1.540766,-3.334873,-0.168838,-0.143668,0.022900,0.042081,0.001148,-0.009912
44.418000,-0.363400,0.067100,0.02,0.04,0.016283,0.034921,-0.24,-0.26,-0.220426,-0.277497,-0.379374,-1.675793,-0.220426,-0.277497,0.016283,0.034921,0.000742,-0.013279
44.451000,-0.362800,0.068200,0.01,0.03,0.009226,0.025824,-0.18,-0.29,-0.194635,-0.257622,2.648292,1.073092,-0.194635,-0.257622,0.009226,0.025824,0.000376,-0.008449
44.485000,-0.362800,0.068900,0.00,0.02,0.005232,0.017967,-0.09,-0.24,-0.040342,-0.204527,3.770513,2.443820,-0.040342,-0.204527,0.005232,0.017967,0.000175,-0.003886
44.518000,-0.363000,0.069300,0.00,0.01,0.005596,0.012936,-0.02,-0.13,0.061760,-0.091442,0.009688,2.706377,0.061760,-0.091442,0.005596,0.012936,0.000099,-0.000837
44.552000,-0.362700,0.069500,0.01,0.01,0.005971,0.011033,-0.00,-0.05,-0.039683,-0.020493,-2.550304,0.858366,-0.039683,-0.020493,0.005971,0.011033,0.000079,-0.000463
44.585000,-0.362300,0.069700,0.00,0.01,0.003398,0.010122,-0.04,-0.04,-0.111661,-0.033073,0.212632,-1.738124,-0.111661,-0.033073,0.003398,0.010122,0.000057,-0.000714
44.618000,-0.362300,0.070200,0.00,0.01,0.001071,0.007202,-0.06,-0.08,-0.025224,-0.138686,1.518591,-1.418761,-0.025224,-0.138686,0.001071,0.007202,0.000027,-0.001026
44.652000,-0.362400,0.070600,-0.00,0.00,0.000500,0.002642,-0.04,-0.07,-0.008397,-0.129549,0.500560,3.290258,-0.008397,-0.129549,0.000500,0.002642,0.000004,-0.000347
44.685000,-0.362400,0.070400,-0.00,-0.00,0.000507,0.001886,-0.00,0.03,0.008814,0.085052,0.124503,5.612479,0.008814,0.085052,0.000507,0.001886,0.000002,0.000165
44.718000,-0.362300,0.070100,-0.00,0.00,0.000658,0.007617,0.04,0.15,0.000070,0.252099,1.376312,0.635699,0.000070,0.252099,0.000658,0.007617,0.000029,0.001920
44.751000,-0.362400,0.070400,0.00,0.01,0.002400,0.014084,0.09,0.16,0.102403,0.128280,1.734293,-4.471223,0.102403,0.128280,0.002400,0.014084,0.000102,0.002052
44.785000,-0.362400,0.071200,0.01,0.02,0.006147,0.015382,0.10,0.03,0.118002,-0.051944,-0.753701,-4.667682,0.118002,-0.051944,0.006147,0.015382,0.000137,-0.000074
44.818000,-0.362100,0.072100,0.01,0.02,0.009023,0.011283,0.08,-0.09,0.051152,-0.189123,-1.744771,0.597075,0.051152,-0.189123,0.009023,0.011283,0.000104,-0.001672
44.852000,-0.361600,0.072400,0.01,0.01,0.009881,0.007876,0.04,-0.07,-0.000643,-0.011343,-0.204389,4.198084,-0.000643,-0.011343,0.009881,0.007876,0.000080,-0.000096
44.885000,-0.361200,0.072300,0.01,0.01,0.010504,0.009321,0.02,0.01,0.037253,0.096347,0.735253,1.435261,0.037253,0.096347,0.010504,0.009321,0.000099,0.001289
44.918000,-0.361000,0.072400,0.01,0.01,0.011976,0.012425,0.01,-0.02,0.049354,0.086255,-0.547590,-7.329988,0.049354,0.086255,0.011976,0.012425,0.000149,0.001663
44.952000,-0.360600,0.073300,0.01,0.01,0.012815,0.007056,-0.03,-0.30,0.000017,-0.402092,-3.997151,-14.127851,0.000017,-0.402092,0.012815,0.007056,0.000107,-0.002837
44.985000,-0.359800,0.073900,0.01,-0.00,0.009034,-0.014645,-0.12,-0.79,-0.222452,-0.874439,-2.665660,-12.905298,-0.222452,-0.874439,0.009034,-0.014645,0.000148,0.010797
45.018000,-0.359500,0.073700,0.00,-0.04,0.002171,-0.051265,-0.19,-1.21,-0.181248,-1.279653,1.433802,-5.141592,-0.181248,-1.279653,0.002171,-0.051265,0.001316,0.065208
45.052000,-0.359600,0.071900,-0.00,-0.09,-0.003035,-0.093828,-0.16,-1.20,-0.124953,-1.224067,2.763006,12.257807,-0.124953,-1.224067,-0.003035,-0.093828,0.004406,0.115231
45.085000,-0.359900,0.067600,-0.01,-0.14,-0.005046,-0.122221,-0.06,-0.61,0.006637,-0.446122,1.971603,27.476829,0.006637,-0.446122,-0.005046,-0.122221,0.007482,0.054492
45.118000,-0.360200,0.061600,-0.01,-0.14,-0.004778,-0.118851,0.02,0.33,0.009116,0.644357,0.577079,26.340534,0.009116,0.644357,-0.004778,-0.118851,0.007074,-0.076626
45.152000,-0.360500,0.056300,-0.00,-0.11,-0.003843,-0.085032,0.03,1.17,0.045878,1.345035,-0.635332,11.301808,0.045878,1.345035,-0.003843,-0.085032,0.003623,-0.114547
45.185000,-0.360400,0.053500,-0.00,-0.05,-0.003643,-0.038147,0.04,1.52,-0.034087,1.412880,0.626359,-4.963470,-0.034087,1.412880,-0.003643,-0.038147,0.000734,-0.053773
45.219000,-0.360500,0.053200,-0.00,0.01,-0.002718,0.003000,0.11,1.28,0.088470,1.007519,4.450977,-13.573165,0.088470,1.007519,-0.002718,0.003000,0.000008,0.002782
45.252000,-0.360900,0.054500,0.00,0.04,0.003352,0.028456,0.20,0.68,0.268579,0.489905,2.542403,-16.658881,0.268579,0.489905,0.003352,0.028456,0.000410,0.014841
45.285000,-0.360900,0.056700,0.01,0.05,0.012360,0.034654,0.23,0.02,0.261354,-0.125285,-2.862865,-14.579688,0.261354,-0.125285,0.012360,0.034654,0.000677,-0.001111
45.318000,-0.360100,0.058600,0.02,0.04,0.018060,0.023999,0.15,-0.48,0.073905,-0.501514,-5.141951,-7.962721,0.073905,-0.501514,0.018060,0.023999,0.000451,-0.010701
45.352000,-0.359100,0.059600,0.02,0.01,0.017815,0.004138,-0.01,-0.70,-0.088299,-0.666750,-3.030316,-0.364708,-0.088299,-0.666750,0.017815,0.004138,0.000167,-0.004332
45.385000,-0.358500,0.059500,0.02,-0.02,0.014067,-0.016144,-0.16,-0.62,-0.132157,-0.526314,-1.574067,7.305019,-0.132157,-0.526314,0.014067,-0.016144,0.000229,0.006638
45.418000,-0.358000,0.058400,0.01,-0.03,0.008500,-0.027981,-0.22,-0.26,-0.195335,-0.170009,-1.403465,13.029980,-0.195335,-0.170009,0.008500,-0.027981,0.000428,0.003097
45.452000,-0.357600,0.056600,0.00,-0.04,0.001310,-0.024756,-0.19,0.21,-0.227592,0.359725,2.472060,12.294113,-0.227592,0.359725,0.001310,-0.024756,0.000307,-0.009204
45.485000,-0.357800,0.055200,-0.01,-0.02,-0.003022,-0.007319,-0.06,0.58,-0.027235,0.665991,6.750797,4.008660,-0.027235,0.665991,-0.003022,-0.007319,0.000031,-0.004792
45.519000,-0.358300,0.055000,-0.00,0.01,0.000450,0.014752,0.15,0.66,0.231462,0.632314,5.353548,-6.399840,0.231462,0.632314,0.000450,0.014752,0.000109,0.009432
45.552000,-0.358500,0.056100,0.01,0.04,0.010111,0.029425,0.29,0.37,0.336806,0.230802,0.109188,-13.543927,0.336806,0.230802,0.010111,0.029425,0.000484,0.010197
45.585000,-0.358100,0.057900,0.02,0.04,0.019897,0.028441,0.26,-0.14,0.238887,-0.288673,-5.238197,-13.713065,0.238887,-0.288673,0.019897,0.028441,0.000602,-0.003457
45.619000,-0.357000,0.059600,0.03,0.02,0.023629,0.011605,0.07,-0.59,-0.019392,-0.701687,-7.003488,-6.239012,-0.019392,-0.701687,0.023629,0.011605,0.000346,-0.008601
45.652000,-0.355700,0.060100,0.03,-0.01,0.019264,-0.012443,-0.14,-0.74,-0.237351,-0.712926,-3.100393,4.307465,-0.237351,-0.712926,0.019264,-0.012443,0.000263,0.004299
45.685000,-0.355000,0.059000,0.02,-0.03,0.011315,-0.031512,-0.24,-0.56,-0.230218,-0.408779,2.344448,9.643134,-0.230218,-0.408779,0.011315,-0.031512,0.000561,0.010277
45.719000,-0.354900,0.057100,0.00,-0.05,0.006077,-0.039434,-0.18,-0.22,-0.077928,-0.057193,3.690414,7.625663,-0.077928,-0.057193,0.006077,-0.039434,0.000796,0.001782
45.752000,-0.354900,0.055400,0.00,-0.05,0.005105,-0.038540,-0.02,0.10,0.020730,0.109766,2.914013,4.998358,0.020730,0.109766,0.005105,-0.038540,0.000756,-0.004125
45.785000,-0.354900,0.053900,0.00,-0.04,0.007501,-0.031868,0.09,0.31,0.120225,0.282695,0.676693,3.800184,0.120225,0.282695,0.007501,-0.031868,0.000536,-0.008107
45.819000,-0.354700,0.052700,0.01,-0.02,0.010679,-0.020803,0.10,0.37,0.066745,0.368178,-1.521774,-0.017734,0.066745,0.368178,0.010679,-0.020803,0.000273,-0.006947
45.852000,-0.354200,0.052100,0.01,-0.01,0.012099,-0.009759,0.04,0.30,0.016744,0.281489,-2.261072,-5.094200,0.016744,0.281489,0.012099,-0.009759,0.000121,-0.002544
45.885000,-0.353500,0.052200,0.01,-0.00,0.010904,-0.004604,-0.00,0.10,-0.087008,0.021773,0.853683,-7.424687,-0.087008,0.021773,0.010904,-0.004604,0.000070,-0.001049
45.919000,-0.353300,0.052500,0.01,-0.00,0.010697,-0.008031,0.02,-0.14,0.074795,-0.223389,3.157796,-4.630751,0.074795,-0.223389,0.010697,-0.008031,0.000089,0.002594
45.952000,-0.353100,0.052400,0.01,-0.01,0.014139,-0.016812,0.08,-0.27,0.127722,-0.293118,0.244535,0.959076,0.127722,-0.293118,0.014139,-0.016812,0.000241,0.006734
45.985000,-0.352600,0.051700,0.02,-0.03,0.017865,-0.024484,0.09,-0.20,0.091423,-0.158172,-2.189238,5.960752,0.091423,-0.158172,0.017865,-0.024484,0.000459,0.005506
46.019000,-0.351800,0.050500,0.02,-0.03,0.019060,-0.025265,0.04,0.03,-0.021146,0.112213,-2.232320,7.089935,-0.021146,0.112213,0.019060,-0.025265,0.000501,-0.003238
46.052000,-0.351000,0.049200,0.02,-0.02,0.017674,-0.017850,-0.03,0.26,-0.060375,0.323943,-0.312881,4.083317,-0.060375,0.323943,0.017674,-0.017850,0.000315,-0.006850
46.085000,-0.350400,0.048500,0.02,-0.01,0.015926,-0.005715,-0.06,0.38,-0.042422,0.389878,0.211867,-0.894084,-0.042422,0.389878,0.015926,-0.005715,0.000143,-0.002904
46.119000,-0.350000,0.048700,0.02,0.00,0.014423,0.005386,-0.07,0.38,-0.045968,0.263146,-0.440881,-1.164641,-0.045968,0.263146,0.014423,0.005386,0.000119,0.000754
46.152000,-0.349500,0.049100,0.01,0.02,0.012411,0.015141,-0.08,0.33,-0.072402,0.310683,-0.886259,-0.767166,-0.072402,0.310683,0.012411,0.015141,0.000192,0.003806
46.186000,-0.348900,0.049700,0.01,0.03,0.009374,0.024009,-0.04,0.19,-0.106233,0.210978,2.959148,-5.622531,-0.106233,0.210978,0.009374,0.024009,0.000332,0.004070
46.219000,-0.348800,0.050700,0.01,0.03,0.009758,0.026378,0.07,-0.11,0.128820,-0.071649,5.858067,-13.362256,0.128820,-0.071649,0.009758,0.026378,0.000396,-0.000633
46.252000,-0.348800,0.052300,0.01,0.03,0.016914,0.013300,0.21,-0.59,0.292115,-0.697655,1.893581,-16.733573,0.292115,-0.697655,0.016914,0.013300,0.000231,-0.004338
46.286000,-0.348300,0.053300,0.02,-0.00,0.026259,-0.019122,0.24,-1.13,0.257584,-1.209532,-3.160532,-11.588670,0.257584,-1.209532,0.026259,-0.019122,0.000528,0.029893
46.319000,-0.347000,0.052600,0.03,-0.05,0.031950,-0.064941,0.18,-1.54,0.077199,-1.485685,-3.815541,-5.992509,0.077199,-1.485685,0.031950,-0.064941,0.002619,0.098948
46.352000,-0.345500,0.049800,0.04,-0.11,0.033231,-0.117687,0.10,-1.76,-0.001873,-1.617023,0.957546,-3.778287,-0.001873,-1.617023,0.033231,-0.117687,0.007477,0.190240
46.386000,-0.344500,0.045000,0.04,-0.17,0.035618,-0.174801,0.09,-1.90,0.142312,-1.742608,2.916028,-5.656894,0.142312,-1.742608,0.035618,-0.174801,0.015912,0.309678
46.419000,-0.343500,0.038300,0.04,-0.24,0.041377,-0.238454,0.12,-2.09,0.196417,-2.001692,-0.626539,-7.933206,0.196417,-2.001692,0.041377,-0.238454,0.029286,0.485438
46.452000,-0.341900,0.029400,0.05,-0.31,0.046411,-0.311278,0.13,-2.33,0.099707,-2.282066,-3.010779,-6.717490,0.099707,-2.282066,0.046411,-0.311278,0.049524,0.714984
46.486000,-0.340000,0.018000,0.05,-0.39,0.047965,-0.391867,0.08,-2.50,-0.008316,-2.458481,-0.818242,-1.593692,-0.008316,-2.458481,0.047965,-0.391867,0.077930,0.962999
46.519000,-0.338400,0.003500,0.05,-0.48,0.048572,-0.474299,0.03,-2.46,0.044067,-2.390437,1.482055,6.883681,0.044067,-2.390437,0.048572,-0.474299,0.113659,1.135922
46.552000,-0.336800,-0.014400,0.05,-0.56,0.050893,-0.548773,0.06,-2.14,0.092464,-1.990391,2.018838,15.723242,0.092464,-1.990391,0.050893,-0.548773,0.151871,1.096978
46.586000,-0.335000,-0.034800,0.05,-0.63,0.055548,-0.605071,0.18,-1.50,0.181348,-1.321257,3.763820,21.153668,0.181348,-1.321257,0.055548,-0.605071,0.184598,0.809527
46.619000,-0.333200,-0.057000,0.06,-0.67,0.064554,-0.636915,0.32,-0.65,0.348403,-0.551941,3.720069,24.168066,0.348403,-0.551941,0.064554,-0.636915,0.204914,0.374031
46.652000,-0.331200,-0.080600,0.08,-0.67,0.077860,-0.640821,0.36,0.14,0.434313,0.322172,-2.357068,18.366771,0.434313,0.322172,0.077860,-0.640821,0.208357,-0.172639
46.686000,-0.328300,-0.103300,0.09,-0.65,0.088442,-0.623495,0.22,0.67,0.188123,0.696999,-9.737892,4.756892,0.188123,0.696999,0.088442,-0.623495,0.198284,-0.417938
46.719000,-0.324600,-0.124100,0.10,-0.62,0.087766,-0.600670,-0.09,0.86,-0.227864,0.645640,-9.860660,-1.658642,-0.227864,0.645640,0.087766,-0.600670,0.184254,-0.407816
46.752000,-0.321100,-0.144200,0.09,-0.59,0.075691,-0.579763,-0.38,0.74,-0.482402,0.584212,-3.054403,-3.300030,-0.482402,0.584212,0.075691,-0.579763,0.170927,-0.375218
46.786000,-0.318600,-0.163700,0.06,-0.57,0.060086,-0.562670,-0.47,0.42,-0.435563,0.421238,4.208165,-9.519369,-0.435563,0.421238,0.060086,-0.562670,0.160104,-0.263190
46.819000,-0.317000,-0.181900,0.05,-0.56,0.049345,-0.556582,-0.32,0.06,-0.196247,-0.063106,6.128924,-11.253535,-0.196247,-0.063106,0.049345,-0.556582,0.156109,0.025440
46.853000,-0.315800,-0.200100,0.04,-0.57,0.045690,-0.563503,-0.10,-0.21,-0.018797,-0.344002,3.843074,-1.977993,-0.018797,-0.344002,0.045690,-0.563503,0.159811,0.192987
46.886000,-0.314600,-0.219400,0.04,-0.58,0.046476,-0.572710,0.02,-0.28,0.065082,-0.197609,-0.458226,5.215534,0.065082,-0.197609,0.046476,-0.572710,0.165079,0.116198
46.919000,-0.312900,-0.239200,0.05,-0.59,0.046734,-0.575888,0.02,-0.10,-0.049956,0.010654,-1.556084,6.264198,-0.049956,0.010654,0.046734,-0.575888,0.166916,-0.008470
46.953000,-0.311100,-0.259100,0.05,-0.59,0.045192,-0.571825,0.04,0.17,-0.040732,0.228356,3.268665,5.517672,-0.040732,0.228356,0.045192,-0.571825,0.164513,-0.132421
46.986000,-0.309700,-0.278800,0.05,-0.58,0.047429,-0.561384,0.15,0.35,0.172313,0.385856,6.010038,2.175668,0.172313,0.385856,0.047429,-0.561384,0.158701,-0.208441
47.019000,-0.308500,-0.297800,0.05,-0.56,0.056613,-0.548427,0.26,0.39,0.367951,0.376302,1.334428,-2.746205,0.367951,0.376302,0.056613,-0.548427,0.151989,-0.185543
47.052000,-0.306600,-0.316100,0.07,-0.55,0.067340,-0.538645,0.23,0.30,0.263054,0.199114,-7.680868,-4.335540,0.263054,0.199114,0.067340,-0.538645,0.147337,-0.089538
47.086000,-0.303700,-0.334100,0.08,-0.54,0.069188,-0.533875,-0.00,0.12,-0.154348,0.081485,-9.538641,-4.572651,-0.154348,0.081485,0.069188,-0.533875,0.144905,-0.054182
47.119000,-0.300800,-0.351900,0.07,-0.54,0.060010,-0.534391,-0.29,-0.02,-0.385573,-0.111826,-4.778121,-0.848631,-0.385573,-0.111826,0.060010,-0.534391,0.144587,0.036621
47.153000,-0.298700,-0.370000,0.05,-0.55,0.045308,-0.535887,-0.48,0.00,-0.479260,0.023778,-0.265902,5.457129,-0.479260,0.023778,0.045308,-0.535887,0.144614,-0.034457
47.186000,-0.297600,-0.388300,0.03,-0.55,0.030298,-0.531076,-0.52,0.23,-0.403654,0.259258,1.279555,9.248984,-0.403654,0.259258,0.030298,-0.531076,0.141480,-0.149916
47.219000,-0.296700,-0.406900,0.02,-0.53,0.016768,-0.515572,-0.42,0.51,-0.392250,0.652709,2.925235,5.843379,-0.392250,0.652709,0.016768,-0.515572,0.133048,-0.343096
47.253000,-0.296300,-0.424600,0.00,-0.51,0.006619,-0.493314,-0.20,0.62,-0.204738,0.656608,8.121587,-4.481349,-0.204738,0.656608,0.006619,-0.493314,0.121701,-0.325269
47.286000,-0.296800,-0.440700,-0.00,-0.48,0.005859,-0.476236,0.05,0.49,0.160017,0.347977,7.777768,-8.041874,0.160017,0.347977,0.005859,-0.476236,0.113417,-0.164782
47.319000,-0.297100,-0.456000,0.01,-0.47,0.014089,-0.468454,0.25,0.33,0.324150,0.109761,0.953712,0.881112,0.324150,0.109761,0.014089,-0.468454,0.109824,-0.046851
47.353000,-0.296300,-0.471800,0.02,-0.47,0.023423,-0.459654,0.33,0.42,0.224870,0.407893,-1.937114,13.012049,0.224870,0.407893,0.023423,-0.459654,0.105915,-0.182223
47.386000,-0.295200,-0.487800,0.03,-0.46,0.030517,-0.435812,0.29,0.89,0.192426,0.994580,0.472167,19.065306,0.192426,0.994580,0.030517,-0.435812,0.095432,-0.427578
47.419000,-0.294300,-0.503000,0.04,-0.42,0.038157,-0.389931,0.18,1.62,0.256977,1.704334,-3.212473,20.187803,0.256977,1.704334,0.038157,-0.389931,0.076751,-0.654767
47.453000,-0.292800,-0.516300,0.05,-0.35,0.042083,-0.320712,-0.02,2.38,-0.026022,2.367351,-9.573686,17.143311,-0.026022,2.367351,0.042083,-0.320712,0.052314,-0.760333
47.486000,-0.290800,-0.526800,0.04,-0.25,0.034942,-0.231676,-0.27,2.94,-0.394033,2.870079,-7.007545,10.038258,-0.394033,2.870079,0.034942,-0.231676,0.027447,-0.678696
47.520000,-0.289200,-0.533700,0.03,-0.14,0.019700,-0.131035,-0.42,3.19,-0.502535,3.049952,2.325002,0.289811,-0.502535,3.049952,0.019700,-0.131035,0.008779,-0.409551
47.553000,-0.288900,-0.536500,0.01,-0.03,0.007146,-0.030060,-0.33,3.13,-0.235933,2.889786,8.760590,-6.547534,-0.235933,2.889786,0.007146,-0.030060,0.000477,-0.088552
47.586000,-0.289500,-0.535400,-0.00,0.07,0.004719,0.063347,-0.11,2.88,0.093185,2.604720,4.603891,-6.131494,0.093185,2.604720,0.004719,0.063347,0.002018,0.165441
47.619000,-0.289600,-0.531300,0.00,0.16,0.007615,0.149666,0.01,2.68,0.077131,2.472844,-4.769330,0.007054,0.077131,2.472844,0.007615,0.149666,0.011229,0.370687
47.653000,-0.289000,-0.524800,0.01,0.24,0.004997,0.235992,-0.11,2.64,-0.231130,2.605200,-7.872406,3.431733,-0.231130,2.605200,0.004997,0.235992,0.027859,0.613652
47.686000,-0.288600,-0.515500,0.00,0.33,-0.006722,0.326286,-0.39,2.72,-0.458192,2.706202,-6.347407,1.845266,-0.458192,2.706202,-0.006722,0.326286,0.053254,0.886076
47.719000,-0.288700,-0.503000,-0.02,0.42,-0.025778,0.418713,-0.61,2.76,-0.662753,2.730678,-1.097834,-3.997018,-0.662753,2.730678,-0.025778,0.418713,0.087993,1.160455
47.753000,-0.289700,-0.487100,-0.05,0.52,-0.046103,0.506519,-0.56,2.56,-0.532845,2.434405,8.088118,-11.807842,-0.532845,2.434405,-0.046103,0.506519,0.129344,1.257639
47.786000,-0.291800,-0.468100,-0.07,0.60,-0.057078,0.580676,-0.20,2.06,-0.112761,1.927744,14.946511,-18.111788,-0.112761,1.927744,-0.057078,0.580676,0.170221,1.125831
47.820000,-0.294800,-0.446200,-0.06,0.66,-0.050775,0.633895,0.28,1.41,0.483518,1.202803,11.683938,-18.132001,0.483518,1.202803,-0.050775,0.633895,0.202201,0.737901
47.853000,-0.297100,-0.422800,-0.04,0.70,-0.030966,0.666154,0.59,0.86,0.681747,0.694768,-1.074177,-9.220969,0.681747,0.694768,-0.030966,0.666154,0.222360,0.441712
47.886000,-0.297700,-0.399300,-0.01,0.71,-0.012398,0.687753,0.55,0.54,0.410474,0.575778,-10.104968,-1.590513,0.410474,0.575778,-0.012398,0.687753,0.236579,0.390904
47.920000,-0.297300,-0.375600,0.00,0.73,-0.005512,0.707514,0.22,0.48,-0.005391,0.586613,-8.435889,0.742357,-0.005391,0.586613,-0.005512,0.707514,0.250303,0.415067
47.953000,-0.297000,-0.351100,-0.00,0.74,-0.008377,0.728133,-0.11,0.59,-0.163167,0.626258,-3.090143,1.978866,-0.163167,0.626258,-0.008377,0.728133,0.265124,0.457366
47.986000,-0.297100,-0.326000,-0.01,0.76,-0.014815,0.751039,-0.23,0.74,-0.215521,0.721176,1.895400,4.057920,-0.215521,0.721176,-0.014815,0.751039,0.282140,0.544825
48.020000,-0.297900,-0.300500,-0.02,0.79,-0.019061,0.778637,-0.15,0.84,-0.034280,0.902196,4.041327,1.854221,-0.034280,0.902196,-0.019061,0.778637,0.303319,0.703136
48.053000,-0.298800,-0.273600,-0.02,0.82,-0.018636,0.808377,-0.00,0.91,0.059289,0.847263,1.837545,-0.498801,0.059289,0.847263,-0.018636,0.808377,0.326911,0.683804
48.086000,-0.299500,-0.245300,-0.02,0.85,-0.016087,0.837542,0.08,1.07,0.090673,0.868278,-0.928391,8.918827,0.090673,0.868278,-0.016087,0.837542,0.350867,0.725760
48.120000,-0.300000,-0.216500,-0.01,0.89,-0.014611,0.877016,0.03,1.49,-0.003841,1.453744,-3.240835,20.697387,-0.003841,1.453744,-0.014611,0.877016,0.384685,1.275012
48.153000,-0.300400,-0.187000,-0.01,0.94,-0.016881,0.940416,-0.10,2.09,-0.129703,2.275700,-3.875209,16.173230,-0.129703,2.275700,-0.016881,0.940416,0.442334,2.142295
48.186000,-0.300700,-0.155200,-0.02,1.03,-0.023631,1.022513,-0.21,2.33,-0.267355,2.553523,-0.973985,-12.512879,-0.267355,2.553523,-0.023631,1.022513,0.523046,2.617329
48.220000,-0.301500,-0.119000,-0.03,1.12,-0.031507,1.090145,-0.20,1.51,-0.195934,1.424824,3.856297,-52.183550,-0.195934,1.424824,-0.031507,1.090145,0.594705,1.559439
48.253000,-0.303000,-0.078700,-0.04,1.17,-0.034925,1.097453,-0.10,-0.50,-0.005127,-0.994958,4.508813,-73.329383,-0.005127,-0.994958,-0.034925,1.097453,0.602811,-1.091741
48.286000,-0.304500,-0.037900,-0.04,1.11,-0.033131,1.019992,0.03,-3.06,0.110665,-3.561574,0.758117,-63.111305,0.110665,-3.561574,-0.033131,1.019992,0.520740,-3.636442
48.320000,-0.305500,-0.001500,-0.03,0.95,-0.030460,0.869574,0.10,-5.15,0.046425,-5.286527,-0.394313,-31.433038,0.046425,-5.286527,-0.030460,0.869574,0.378543,-4.598441
48.353000,-0.306500,0.026800,-0.03,0.73,-0.028246,0.682820,0.11,-6.14,0.083852,-5.699020,0.484679,-1.127836,0.083852,-5.699020,-0.028246,0.682820,0.233520,-3.893772
48.386000,-0.307500,0.046800,-0.03,0.51,-0.025471,0.494762,0.08,-6.04,0.079383,-5.363220,-1.257074,13.443192,0.079383,-5.363220,-0.025471,0.494762,0.122719,-2.655538
48.420000,-0.308300,0.059900,-0.02,0.32,-0.024149,0.322244,0.00,-5.29,-0.001629,-4.784883,-2.885025,21.134587,-0.001629,-4.784883,-0.024149,0.322244,0.052212,-1.541860
48.453000,-0.308900,0.067200,-0.02,0.16,-0.026162,0.174158,-0.07,-4.24,-0.116799,-3.926068,-1.114395,28.449373,-0.116799,-3.926068,-0.026162,0.174158,0.015508,-0.680700
48.486000,-0.309700,0.069600,-0.03,0.03,-0.029464,0.058959,-0.07,-3.03,-0.077408,-2.850326,2.725790,36.038944,-0.077408,-2.850326,-0.029464,0.058959,0.002172,-0.165772
48.520000,-0.310900,0.068100,-0.03,-0.05,-0.029614,-0.014579,0.01,-1.71,0.068555,-1.475420,3.448904,37.462891,0.068555,-1.475420,-0.029614,-0.014579,0.000545,0.019479
48.553000,-0.312200,0.064800,-0.03,-0.08,-0.025778,-0.044809,0.10,-0.45,0.157117,-0.302849,0.393048,29.000085,0.157117,-0.302849,-0.025778,-0.044809,0.001336,0.009520
48.587000,-0.313000,0.061400,-0.02,-0.07,-0.021487,-0.041516,0.12,0.47,0.095282,0.496586,-2.540013,15.105591,0.095282,0.496586,-0.021487,-0.041516,0.001093,-0.022663
48.620000,-0.313400,0.059300,-0.02,-0.04,-0.020132,-0.020760,0.08,0.86,-0.015604,0.724331,-0.993895,1.414315,-0.015604,0.724331,-0.020132,-0.020760,0.000418,-0.014723
48.653000,-0.314100,0.059000,-0.02,-0.00,-0.019927,0.001631,0.03,0.84,0.027697,0.592760,1.319218,-4.243426,0.027697,0.592760,-0.019927,0.001631,0.000200,0.000415
48.687000,-0.314900,0.059800,-0.02,0.02,-0.018196,0.019116,0.01,0.64,0.074103,0.435778,-0.369825,-3.651856,0.074103,0.435778,-0.018196,0.019116,0.000348,0.006982
48.720000,-0.315400,0.060700,-0.02,0.04,-0.016893,0.032379,0.01,0.36,0.002549,0.344433,-1.537948,-5.344308,0.002549,0.344433,-0.016893,0.032379,0.000667,0.011109
48.753000,-0.315900,0.062000,-0.02,0.05,-0.017368,0.039465,-0.01,0.02,-0.030477,0.072365,-0.317962,-11.888465,-0.030477,0.072365,-0.017368,0.039465,0.000930,0.003385
48.787000,-0.316500,0.064200,-0.02,0.04,-0.018210,0.032807,-0.02,-0.33,-0.019072,-0.463982,0.538772,-10.080895,-0.019072,-0.463982,-0.018210,0.032807,0.000704,-0.014875
48.820000,-0.317100,0.065900,-0.02,0.02,-0.018430,0.014496,-0.01,-0.51,0.006159,-0.613136,0.460847,3.335183,0.006159,-0.613136,-0.018430,0.014496,0.000275,-0.009002
48.853000,-0.317800,0.065900,-0.02,-0.00,-0.018116,0.000041,-0.00,-0.38,0.012265,-0.237190,-0.257442,11.597066,0.012265,-0.237190,-0.018116,0.000041,0.000164,-0.000232
48.887000,-0.318500,0.064900,-0.02,-0.01,-0.018101,-0.001009,-0.04,-0.08,-0.011347,0.175465,-2.086324,5.881069,-0.011347,0.175465,-0.018101,-0.001009,0.000164,0.000028
48.920000,-0.318900,0.064500,-0.02,-0.00,-0.020497,0.004741,-0.08,0.11,-0.129605,0.162723,-1.450740,-4.083721,-0.129605,0.162723,-0.020497,0.004741,0.000221,0.003428
48.953000,-0.319500,0.065100,-0.02,0.01,-0.024570,0.005769,-0.08,0.06,-0.109997,-0.102228,2.166782,-5.637073,-0.109997,-0.102228,-0.024570,0.005769,0.000318,0.002113
48.987000,-0.320600,0.065700,-0.03,0.00,-0.026139,0.000281,-0.02,-0.07,0.017736,-0.220598,3.935746,1.348183,0.017736,-0.220598,-0.026139,0.000281,0.000342,-0.000526
49.020000,-0.321700,0.065500,-0.03,-0.00,-0.023157,-0.003649,0.09,-0.05,0.157634,-0.010552,1.865178,7.554064,0.157634,-0.010552,-0.023157,-0.003649,0.000275,-0.003612
49.053000,-0.322400,0.065000,-0.02,-0.00,-0.018020,0.001154,0.17,0.18,0.144569,0.293078,-0.093292,7.420338,0.144569,0.293078,-0.018020,0.001154,0.000163,-0.002267
49.087000,-0.323100,0.064800,-0.01,0.01,-0.012990,0.014535,0.16,0.45,0.151290,0.494031,-0.976821,4.403936,0.151290,0.494031,-0.012990,0.014535,0.000190,0.005216
49.120000,-0.323400,0.065200,-0.01,0.03,-0.009090,0.033007,0.10,0.57,0.078145,0.592546,-2.086555,-1.209625,0.078145,0.592546,-0.009090,0.033007,0.000586,0.018848
49.153000,-0.323300,0.066700,-0.01,0.05,-0.007602,0.050081,0.09,0.50,0.009404,0.411777,1.397640,-5.404246,0.009404,0.411777,-0.007602,0.050081,0.001283,0.020551
49.187000,-0.323700,0.069000,-0.01,0.07,-0.004498,0.060907,0.13,0.33,0.173184,0.225057,3.701586,-4.282650,0.173184,0.225057,-0.004498,0.060907,0.001865,0.012929
49.220000,-0.324200,0.071500,0.00,0.07,0.002885,0.066782,0.15,0.18,0.261112,0.120557,-2.542489,-1.402460,0.261112,0.120557,0.002885,0.066782,0.002234,0.008804
49.254000,-0.323800,0.073800,0.01,0.08,0.007329,0.071036,0.05,0.06,0.000295,0.129690,-7.439628,-2.431676,0.000295,0.129690,0.007329,0.071036,0.002550,0.009215
49.287000,-0.323000,0.076300,0.01,0.08,0.003173,0.072480,-0.11,-0.08,-0.244783,-0.044797,-3.571889,-6.575653,-0.244783,-0.044797,0.003173,0.072480,0.002632,-0.004024
49.320000,-0.322800,0.079100,-0.00,0.07,-0.005112,0.066321,-0.22,-0.27,-0.242593,-0.317454,3.041265,-7.013807,-0.242593,-0.317454,-0.005112,0.066321,0.002212,-0.019814
49.353000,-0.323300,0.081700,-0.01,0.06,-0.009882,0.052055,-0.16,-0.45,-0.037977,-0.521736,3.727968,-2.476933,-0.037977,-0.521736,-0.009882,0.052055,0.001404,-0.026784
49.387000,-0.323900,0.083300,-0.01,0.04,-0.010342,0.034925,-0.04,-0.55,0.010908,-0.485886,1.340228,0.750458,0.010908,-0.485886,-0.010342,0.034925,0.000663,-0.017083
49.420000,-0.324400,0.084000,-0.01,0.02,-0.009253,0.018663,0.01,-0.59,0.053159,-0.470705,-2.123616,-2.195949,0.053159,-0.470705,-0.009253,0.018663,0.000217,-0.009277
49.453000,-0.324500,0.084400,-0.01,0.00,-0.010619,-0.000137,-0.05,-0.69,-0.133497,-0.635210,-3.310903,-7.025636,-0.133497,-0.635210,-0.010619,-0.000137,0.000056,0.001505
49.487000,-0.324800,0.084500,-0.01,-0.02,-0.015812,-0.027059,-0.16,-0.86,-0.171983,-0.948448,-2.177888,-4.929291,-0.171983,-0.948448,-0.015812,-0.027059,0.000491,0.028384
49.520000,-0.325300,0.083400,-0.02,-0.06,-0.023523,-0.059680,-0.26,-0.95,-0.281594,-0.970402,-1.126821,2.884030,-0.281594,-0.970402,-0.023523,-0.059680,0.002058,0.064537
49.554000,-0.326200,0.080800,-0.03,-0.09,-0.032536,-0.088966,-0.28,-0.80,-0.248606,-0.752334,1.145395,11.320362,-0.248606,-0.752334,-0.032536,-0.088966,0.004487,0.075021
49.587000,-0.327400,0.076800,-0.04,-0.12,-0.040226,-0.105167,-0.20,-0.34,-0.203707,-0.200618,3.819501,16.360885,-0.203707,-0.200618,-0.040226,-0.105167,0.006339,0.029292
49.620000,-0.329100,0.072300,-0.05,-0.12,-0.043499,-0.102454,-0.04,0.26,0.011120,0.360206,5.704001,15.214668,0.011120,0.360206,-0.043499,-0.102454,0.006194,-0.037388
49.654000,-0.330900,0.068100,-0.05,-0.10,-0.040180,-0.082152,0.13,0.79,0.184165,0.833980,3.707476,10.351133,0.184165,0.833980,-0.040180,-0.082152,0.004182,-0.075913
49.687000,-0.332400,0.065200,-0.04,-0.06,-0.032574,-0.049885,0.25,1.10,0.263228,1.064083,0.720489,2.776809,0.263228,1.064083,-0.032574,-0.049885,0.001775,-0.061656
49.720000,-0.333400,0.064000,-0.03,-0.02,-0.024135,-0.014408,0.27,1.15,0.233158,1.022803,-1.594254,-3.324595,0.233158,1.022803,-0.024135,-0.014408,0.000395,-0.020364
49.754000,-0.334000,0.064100,-0.02,0.02,-0.017540,0.017226,0.21,0.93,0.154819,0.838010,-2.053830,-8.572199,0.154819,0.838010,-0.017540,0.017226,0.000302,0.011720
49.787000,-0.334400,0.065500,-0.01,0.05,-0.013318,0.038950,0.13,0.50,0.093498,0.439893,-1.456104,-14.916173,0.093498,0.439893,-0.013318,0.038950,0.000847,0.015889
49.820000,-0.334700,0.067900,-0.01,0.06,-0.010780,0.043431,0.07,-0.04,0.055804,-0.176289,-0.584989,-15.151922,0.055804,-0.176289,-0.010780,0.043431,0.001001,-0.008258
49.854000,-0.335000,0.070100,-0.01,0.05,-0.008918,0.030397,0.05,-0.53,0.053719,-0.590437,0.083863,-9.251800,0.053719,-0.590437,-0.008918,0.030397,0.000502,-0.018427
49.887000,-0.335300,0.071400,-0.01,0.02,-0.006960,0.006667,0.03,-0.80,0.061506,-0.805412,-0.507566,-0.250882,0.061506,-0.805412,-0.006960,0.006667,0.000046,-0.005798
49.920000,-0.335500,0.071300,-0.01,-0.02,-0.005588,-0.017352,0.01,-0.72,0.019204,-0.607497,-1.554775,8.805324,0.019204,-0.607497,-0.005588,-0.017352,0.000166,0.010434
49.954000,-0.335600,0.070000,-0.01,-0.04,-0.006013,-0.031193,-0.03,-0.34,-0.044218,-0.206650,-1.403836,13.511024,-0.044218,-0.206650,-0.006013,-0.031193,0.000505,0.006712
49.987000,-0.335700,0.068000,-0.01,-0.04,-0.008061,-0.029414,-0.06,0.15,-0.076257,0.311252,0.142966,11.140180,-0.076257,0.311252,-0.008061,-0.029414,0.000465,-0.008541
50.021000,-0.336000,0.066500,-0.01,-0.03,-0.009944,-0.014758,-0.03,0.50,-0.034497,0.550882,2.334125,2.624376,-0.034497,0.550882,-0.009944,-0.014758,0.000158,-0.007787
50.054000,-0.336500,0.066100,-0.01,-0.00,-0.009128,0.002932,0.04,0.57,0.082464,0.489710,2.533074,-4.490628,0.082464,0.489710,-0.009128,0.002932,0.000046,0.000683
50.087000,-0.336900,0.066700,-0.01,0.02,-0.005385,0.015431,0.12,0.37,0.137752,0.245520,1.023222,-8.367898,0.137752,0.245520,-0.005385,0.015431,0.000134,0.003047
50.120000,-0.337100,0.067800,-0.00,0.03,-0.000458,0.018257,0.15,0.02,0.152043,-0.079307,-1.103464,-8.715786,0.152043,-0.079307,-0.000458,0.018257,0.000167,-0.001518
50.154000,-0.337000,0.068800,0.00,0.02,0.003193,0.011007,0.09,-0.33,0.062717,-0.347154,-2.557644,-7.299754,0.062717,-0.347154,0.003193,0.011007,0.000066,-0.003621
50.187000,-0.336700,0.069400,0.01,0.00,0.003887,-0.004682,0.01,-0.56,-0.021877,-0.575690,-2.094342,-3.517347,-0.021877,-0.575690,0.003887,-0.004682,0.000019,0.002610
50.221000,-0.336400,0.069200,0.00,-0.02,0.002160,-0.024436,-0.05,-0.60,-0.079699,-0.586333,0.072759,3.921758,-0.079699,-0.586333,0.002160,-0.024436,0.000301,0.014155
50.254000,-0.336400,0.068000,0.00,-0.04,0.000518,-0.039657,-0.05,-0.36,-0.016929,-0.309011,1.571272,12.576731,-0.016929,-0.309011,0.000518,-0.039657,0.000786,0.012246
50.287000,-0.336500,0.065900,-0.00,-0.05,0.000691,-0.040339,0.01,0.14,0.027148,0.268884,1.546140,16.531212,0.027148,0.268884,0.000691,-0.040339,0.000814,-0.010828
50.321000,-0.336500,0.063700,0.00,-0.04,0.002653,-0.021911,0.07,0.68,0.088208,0.815112,0.943614,10.787955,0.088208,0.815112,0.002653,-0.021911,0.000244,-0.017626
50.354000,-0.336400,0.062600,0.01,-0.00,0.005704,0.008988,0.11,0.94,0.091314,1.002465,0.414959,-3.079616,0.091314,1.002465,0.005704,0.008988,0.000057,0.009531
50.387000,-0.336300,0.063500,0.01,0.04,0.009236,0.036327,0.10,0.73,0.116426,0.605698,-0.197616,-16.737192,0.116426,0.605698,0.009236,0.036327,0.000702,0.023078
50.421000,-0.335800,0.065900,0.01,0.06,0.012539,0.044317,0.10,0.08,0.077876,-0.135664,-0.175799,-21.960784,0.077876,-0.135664,0.012539,0.044317,0.001061,-0.005036
50.454000,-0.335200,0.068500,0.01,0.05,0.015639,0.026921,0.15,-0.74,0.104471,-0.887636,2.694057,-19.171014,0.104471,-0.887636,0.015639,0.026921,0.000485,-0.022262
50.487000,-0.334900,0.070000,0.02,0.01,0.021853,-0.012637,0.19,-1.43,0.261072,-1.439293,0.631732,-12.579908,0.261072,-1.439293,0.021853,-0.012637,0.000319,0.023893
50.521000,-0.334200,0.069400,0.03,-0.05,0.028798,-0.066737,0.12,-1.87,0.147429,-1.743069,-6.230423,-7.624068,0.147429,-1.743069,0.028798,-0.066737,0.002642,0.120573
50.554000,-0.332800,0.066400,0.03,-0.12,0.028540,-0.129651,-0.08,-2.16,-0.162597,-1.957729,-8.565926,-8.667892,-0.162597,-1.957729,0.028540,-0.129651,0.008812,0.249180
50.587000,-0.331300,0.061200,0.03,-0.20,0.018380,-0.202584,-0.31,-2.48,-0.435054,-2.332486,-3.314148,-12.680385,-0.435054,-2.332486,0.018380,-0.202584,0.020689,0.464529
50.621000,-0.330700,0.053600,0.01,-0.28,0.004389,-0.290176,-0.41,-2.87,-0.387959,-2.819996,3.532573,-12.462992,-0.387959,-2.819996,0.004389,-0.290176,0.042111,0.816593
50.654000,-0.331000,0.042900,-0.01,-0.39,-0.005519,-0.392176,-0.31,-3.21,-0.194839,-3.179970,5.761012,-5.462698,-0.194839,-3.179970,-0.005519,-0.392176,0.076916,1.248182
50.687000,-0.331600,0.028200,-0.01,-0.51,-0.008767,-0.500490,-0.08,-3.28,0.003790,-3.191459,5.365336,7.189466,0.003790,-3.191459,-0.008767,-0.500490,0.125284,1.597260
50.721000,-0.332100,0.009100,-0.01,-0.62,-0.005812,-0.600493,0.15,-2.92,0.170004,-2.691086,3.550572,18.521732,0.170004,-2.691086,-0.005812,-0.600493,0.180313,1.614991
50.754000,-0.332500,-0.013700,-0.00,-0.71,0.001247,-0.679085,0.26,-2.18,0.245229,-1.931981,1.061940,23.579249,0.245229,-1.931981,0.001247,-0.679085,0.230579,1.312286
50.787000,-0.332500,-0.039200,0.01,-0.77,0.009533,-0.730420,0.23,-1.31,0.242216,-1.087697,-3.683721,21.646384,0.242216,-1.087697,0.009533,-0.730420,0.266802,0.796785
50.821000,-0.331700,-0.065900,0.02,-0.79,0.013561,-0.756731,0.11,-0.55,-0.005264,-0.460027,-4.253369,15.806484,-0.005264,-0.460027,0.013561,-0.756731,0.286413,0.348046
50.854000,-0.331000,-0.092600,0.02,-0.80,0.012673,-0.764770,-0.00,0.05,-0.047013,-0.012856,-0.262736,12.602821,-0.047013,-0.012856,0.012673,-0.764770,0.292517,0.009236
50.888000,-0.330600,-0.119100,0.01,-0.79,0.011480,-0.758240,-0.05,0.48,-0.023130,0.396965,1.367541,10.035447,-0.023130,0.396965,0.011480,-0.758240,0.287530,-0.301260
50.921000,-0.330300,-0.145500,0.01,-0.76,0.011869,-0.740110,-0.01,0.64,0.045979,0.669554,1.032224,0.804729,0.045979,0.669554,0.011869,-0.740110,0.273952,-0.494998
50.954000,-0.329900,-0.170700,0.01,-0.74,0.013450,-0.721049,0.05,0.45,0.047061,0.451686,0.611983,-14.307016,0.047061,0.451686,0.013450,-0.721049,0.260046,-0.325055
50.988000,-0.329500,-0.194000,0.02,-0.72,0.015739,-0.718526,0.08,-0.02,0.087594,-0.303323,0.062012,-16.031845,0.087594,-0.303323,0.015739,-0.718526,0.258264,0.219324
51.021000,-0.328900,-0.217400,0.02,-0.74,0.018100,-0.734537,0.08,-0.40,0.051278,-0.638479,-0.311712,0.456109,0.051278,-0.638479,0.018100,-0.734537,0.269936,0.469915
51.054000,-0.328200,-0.242600,0.02,-0.76,0.020101,-0.750020,0.07,-0.35,0.066398,-0.272307,-0.041617,15.850004,0.066398,-0.272307,0.020101,-0.750020,0.281467,0.205571
51.088000,-0.327500,-0.269200,0.02,-0.77,0.022053,-0.747181,0.05,0.14,0.048448,0.439321,-0.694956,16.075104,0.048448,0.439321,0.022053,-0.747181,0.279383,-0.327184
51.121000,-0.326800,-0.295400,0.02,-0.75,0.023202,-0.725759,-0.01,0.65,0.019141,0.820800,-2.879055,4.472761,0.019141,0.820800,0.023202,-0.725759,0.263632,-0.595259
51.154000,-0.325800,-0.320000,0.02,-0.72,0.021023,-0.699167,-0.09,0.82,-0.147328,0.743469,-1.867804,-5.692324,-0.147328,0.743469,0.021023,-0.699167,0.244638,-0.522906
51.188000,-0.324900,-0.342900,0.02,-0.69,0.016685,-0.679154,-0.08,0.67,-0.107870,0.433722,3.237285,-6.139891,-0.107870,0.433722,0.016685,-0.679154,0.230764,-0.296364
51.221000,-0.324500,-0.365200,0.01,-0.68,0.016089,-0.666240,0.05,0.52,0.072807,0.325956,6.376900,3.116505,0.072807,0.325956,0.016089,-0.666240,0.222067,-0.215994
51.254000,-0.324500,-0.387800,0.02,-0.66,0.022864,-0.649723,0.18,0.60,0.325759,0.645644,1.602364,10.097229,0.325759,0.645644,0.022864,-0.649723,0.211331,-0.412041
51.288000,-0.323700,-0.410100,0.03,-0.64,0.031492,-0.621533,0.19,0.89,0.181768,1.012568,-6.090911,8.138920,0.181768,1.012568,0.031492,-0.621533,0.193647,-0.623620
51.321000,-0.322100,-0.431200,0.04,-0.60,0.033079,-0.583935,0.04,1.14,-0.088422,1.199091,-5.412587,0.495088,-0.088422,1.199091,0.033079,-0.583935,0.171037,-0.703116
51.354000,-0.320600,-0.450500,0.03,-0.56,0.028409,-0.545764,-0.08,1.15,-0.186288,1.046234,2.111178,-5.981787,-0.186288,1.046234,0.028409,-0.545764,0.149333,-0.576289
51.388000,-0.319800,-0.468100,0.02,-0.52,0.026179,-0.514509,-0.01,1.00,0.055138,0.792329,7.930666,-2.822653,0.055138,0.792329,0.026179,-0.514509,0.132702,-0.406217
51.421000,-0.319300,-0.484600,0.03,-0.50,0.033118,-0.486516,0.23,1.02,0.352997,0.854293,5.490046,9.345742,0.352997,0.854293,0.033118,-0.486516,0.118897,-0.403937
51.454000,-0.318500,-0.500900,0.04,-0.47,0.046402,-0.447720,0.36,1.42,0.428461,1.427840,-2.851755,20.593254,0.428461,1.427840,0.046402,-0.447720,0.101303,-0.619390
51.488000,-0.316700,-0.516700,0.06,-0.41,0.056391,-0.385118,0.20,2.07,0.159078,2.254635,-11.009501,19.195342,0.159078,2.254635,0.056391,-0.385118,0.075748,-0.859329
51.521000,-0.313900,-0.529600,0.06,-0.32,0.053652,-0.300326,-0.13,2.69,-0.320185,2.733123,-9.518975,8.539635,-0.320185,2.733123,0.053652,-0.300326,0.046537,-0.838006
51.555000,-0.311600,-0.538400,0.05,-0.22,0.039909,-0.205662,-0.40,3.11,-0.488212,2.835330,-0.453097,5.894631,-0.488212,2.835330,0.039909,-0.205662,0.021945,-0.602604
51.588000,-0.310600,-0.544100,0.03,-0.11,0.025642,-0.104184,-0.46,3.35,-0.350996,3.133958,4.486641,9.190432,-0.350996,3.133958,0.025642,-0.104184,0.005756,-0.335510
51.621000,-0.310200,-0.546400,0.01,0.00,0.016563,0.007918,-0.31,3.54,-0.183121,3.460279,3.852595,6.542605,-0.183121,3.460279,0.016563,0.007918,0.000169,0.024365
51.654000,-0.309800,-0.544400,0.01,0.12,0.011936,0.127583,-0.10,3.72,-0.089019,3.578855,3.722120,1.986105,-0.089019,3.578855,0.011936,0.127583,0.008210,0.455539
51.688000,-0.309700,-0.538200,0.01,0.25,0.011613,0.249544,0.04,3.75,0.069984,3.595334,1.898520,-3.243044,0.069984,3.595334,0.011613,0.249544,0.031204,0.898008
51.721000,-0.309600,-0.527700,0.01,0.38,0.013484,0.367757,-0.00,3.49,0.040080,3.358328,-4.787835,-12.718819,0.040080,3.358328,0.013484,0.367757,0.067713,1.235587
51.754000,-0.308900,-0.512700,0.01,0.49,0.009820,0.471266,-0.19,2.96,-0.255589,2.730455,-8.538408,-19.198067,-0.255589,2.730455,0.009820,0.471266,0.111094,1.284260
51.788000,-0.308000,-0.494000,0.00,0.58,-0.003714,0.552582,-0.38,2.31,-0.540532,2.052859,-2.009018,-16.556675,-0.540532,2.052859,-0.003714,0.552582,0.152680,1.136381
51.821000,-0.308200,-0.473000,-0.02,0.64,-0.019571,0.614759,-0.38,1.76,-0.392202,1.604601,9.055244,-8.079349,-0.392202,1.604601,-0.019571,0.614759,0.189156,0.994118
51.855000,-0.309600,-0.450800,-0.03,0.69,-0.024959,0.667596,-0.11,1.44,0.075225,1.503464,10.715385,-4.530049,0.075225,1.503464,-0.024959,0.667596,0.223154,1.001829
51.888000,-0.311100,-0.427200,-0.03,0.74,-0.017961,0.715196,0.21,1.20,0.336444,1.296557,3.931172,-10.582467,0.336444,1.296557,-0.017961,0.715196,0.255914,0.921250
51.921000,-0.311900,-0.401800,-0.01,0.78,-0.006418,0.750563,0.32,0.82,0.342545,0.783856,-4.767673,-16.300217,0.342545,0.783856,-0.006418,0.750563,0.281693,0.586135
51.955000,-0.311600,-0.374800,0.00,0.80,-0.000387,0.767087,0.17,0.34,0.012242,0.188143,-7.772228,-13.597416,0.012242,0.188143,-0.000387,0.767087,0.294212,0.144317
51.988000,-0.311100,-0.347600,0.00,0.79,-0.003340,0.767893,-0.07,0.01,-0.185967,-0.140768,-3.362119,-0.318443,-0.185967,-0.140768,-0.003340,0.767893,0.294835,-0.107474
52.021000,-0.311100,-0.321600,-0.01,0.79,-0.010180,0.768330,-0.21,-0.01,-0.216382,0.166489,1.112591,7.221704,-0.216382,0.166489,-0.010180,0.768330,0.295217,0.130121
52.055000,-0.311700,-0.295900,-0.02,0.79,-0.015734,0.777116,-0.21,0.16,-0.110311,0.350307,1.533281,1.786611,-0.110311,0.350307,-0.015734,0.777116,0.302078,0.273965
52.088000,-0.312400,-0.269600,-0.02,0.80,-0.019515,0.787966,-0.16,0.25,-0.112119,0.287978,-1.043179,-4.011200,-0.112119,0.287978,-0.019515,0.787966,0.310636,0.229105
52.121000,-0.313100,-0.242200,-0.02,0.81,-0.024502,0.794180,-0.19,0.26,-0.181247,0.077546,-3.310677,0.689348,-0.181247,0.077546,-0.024502,0.794180,0.315661,0.066026
52.155000,-0.313900,-0.214700,-0.03,0.81,-0.033317,0.801191,-0.30,0.48,-0.337245,0.334854,-3.269913,16.620183,-0.337245,0.334854,-0.033317,0.801191,0.321509,0.279518
52.188000,-0.315000,-0.188100,-0.04,0.83,-0.045911,0.827415,-0.40,1.07,-0.403601,1.207718,-1.096765,25.359309,-0.403601,1.207718,-0.045911,0.827415,0.343362,1.017814
52.221000,-0.316600,-0.161000,-0.06,0.88,-0.059773,0.882954,-0.36,1.74,-0.411825,2.059287,5.208851,10.388942,-0.411825,2.059287,-0.059773,0.882954,0.391590,1.842871
52.255000,-0.319100,-0.130700,-0.07,0.96,-0.067614,0.950503,-0.14,1.88,-0.049399,1.914166,9.802316,-18.636571,-0.049399,1.914166,-0.067614,0.950503,0.454013,1.822760
52.288000,-0.321900,-0.096700,-0.07,1.03,-0.064123,0.996507,0.18,1.04,0.254733,0.792000,8.014447,-43.779110,0.254733,0.792000,-0.064123,0.996507,0.498569,0.772900
52.321000,-0.324600,-0.060300,-0.06,1.05,-0.051368,0.991904,0.40,-0.70,0.495583,-1.062813,1.485303,-56.411501,0.495583,-1.062813,-0.051368,0.991904,0.493256,-1.079665
52.355000,-0.326200,-0.024200,-0.04,0.99,-0.036896,0.922088,0.41,-2.74,0.355733,-3.043982,-6.473564,-49.561927,0.355733,-3.043982,-0.036896,0.922088,0.425804,-2.819945
52.388000,-0.326800,0.008300,-0.03,0.86,-0.029907,0.794979,0.23,-4.38,0.055381,-4.433024,-5.919918,-26.567184,0.055381,-4.433024,-0.029907,0.794979,0.316443,-3.525817
52.421000,-0.327400,0.034500,-0.03,0.68,-0.029761,0.637158,0.05,-5.14,-0.046821,-4.850551,-0.157378,-1.450991,-0.046821,-4.850551,-0.029761,0.637158,0.203428,-3.089175
52.455000,-0.328400,0.053400,-0.03,0.49,-0.029798,0.477660,0.01,-5.07,0.044679,-4.531692,3.651613,11.868061,0.044679,-4.531692,-0.029798,0.477660,0.114524,-2.165940
52.488000,-0.329600,0.066200,-0.03,0.33,-0.025613,0.331881,0.12,-4.56,0.201488,-4.043522,3.762710,11.701237,0.201488,-4.043522,-0.025613,0.331881,0.055401,-1.347131
52.522000,-0.330600,0.074700,-0.02,0.19,-0.017078,0.199629,0.26,-3.92,0.300544,-3.736007,1.235721,13.893275,0.300544,-3.736007,-0.017078,0.199629,0.020072,-0.750950
52.555000,-0.331100,0.079000,-0.01,0.07,-0.007115,0.083438,0.29,-3.15,0.285517,-3.098780,-2.771311,26.316095,0.285517,-3.098780,-0.007115,0.083438,0.003506,-0.260588
52.588000,-0.331100,0.078900,0.00,-0.03,-0.000356,-0.002332,0.18,-2.12,0.112094,-1.946513,-5.132450,36.808760,0.112094,-1.946513,-0.000356,-0.002332,0.000003,0.004499
52.622000,-0.330800,0.075600,0.01,-0.08,0.000471,-0.045551,-0.02,-0.89,-0.063489,-0.595784,-4.497631,34.055309,-0.063489,-0.595784,0.000471,-0.045551,0.001038,0.027109
52.655000,-0.330400,0.071800,-0.00,-0.08,-0.003902,-0.049402,-0.13,0.22,-0.193745,0.369248,0.939257,19.867534,-0.193745,0.369248,-0.003902,-0.049402,0.001228,-0.017486
52.688000,-0.330600,0.069300,-0.01,-0.05,-0.007190,-0.030286,-0.04,0.88,0.000380,0.755208,6.615703,5.806803,0.000380,0.755208,-0.007190,-0.030286,0.000484,-0.022875
52.722000,-0.331300,0.068200,-0.01,-0.01,-0.002829,-0.004458,0.15,0.96,0.256123,0.764111,5.287588,-3.989822,0.256123,0.764111,-0.002829,-0.004458,0.000014,-0.004131
52.755000,-0.331700,0.068600,0.00,0.02,0.007644,0.016758,0.28,0.67,0.359936,0.483900,-1.408478,-9.874251,0.359936,0.483900,0.007644,0.016758,0.000170,0.010861
52.788000,-0.331100,0.070200,0.02,0.03,0.016489,0.026560,0.26,0.27,0.160347,0.092662,-4.866067,-8.883377,0.160347,0.092662,0.016489,0.026560,0.000489,0.005105
52.822000,-0.330100,0.071600,0.02,0.03,0.019708,0.026092,0.14,-0.06,0.029044,-0.120169,-1.681825,-3.550316,0.029044,-0.120169,0.019708,0.026092,0.000535,-0.002563
52.855000,-0.329300,0.072400,0.02,0.03,0.020984,0.021520,0.06,-0.25,0.045983,-0.148760,1.877000,-2.496327,0.045983,-0.148760,0.020984,0.021520,0.000452,-0.002236
52.888000,-0.328700,0.073400,0.02,0.02,0.024429,0.014063,0.08,-0.26,0.156680,-0.289920,1.092642,0.900429,0.156680,-0.289920,0.024429,0.014063,0.000397,-0.000250
52.922000,-0.327900,0.073900,0.03,0.01,0.029137,0.007646,0.11,-0.08,0.120282,-0.087531,-1.201240,8.850985,0.120282,-0.087531,0.029137,0.007646,0.000454,0.002835
52.955000,-0.326800,0.073500,0.03,0.01,0.032457,0.011461,0.07,0.19,0.074995,0.311947,-2.986415,9.682092,0.074995,0.311947,0.032457,0.011461,0.000592,0.006009
52.988000,-0.325400,0.073300,0.03,0.02,0.032325,0.026469,-0.00,0.41,-0.082794,0.570851,-1.970078,-0.303514,-0.082794,0.570851,0.032325,0.026469,0.000873,0.012434
53.022000,-0.324300,0.074600,0.03,0.04,0.029915,0.041126,-0.08,0.39,-0.058970,0.291308,-0.402037,-8.613985,-0.058970,0.291308,0.029915,0.041126,0.001293,0.010216
53.055000,-0.323300,0.076600,0.03,0.05,0.027040,0.045825,-0.13,0.13,-0.110133,-0.014900,-1.243443,-7.634903,-0.110133,-0.014900,0.027040,0.045825,0.001416,-0.003661
53.088000,-0.322400,0.078600,0.02,0.05,0.022728,0.041698,-0.17,-0.15,-0.143524,-0.227865,-1.758404,-3.556238,-0.143524,-0.227865,0.022728,0.041698,0.001128,-0.012763
53.122000,-0.321600,0.080200,0.02,0.04,0.016383,0.033460,-0.21,-0.26,-0.229704,-0.256724,-1.136375,1.315148,-0.229704,-0.256724,0.016383,0.033460,0.000694,-0.012353
53.155000,-0.321100,0.081100,0.01,0.03,0.008724,0.026742,-0.22,-0.21,-0.220798,-0.138435,1.637762,3.654913,-0.220798,-0.138435,0.008724,0.026742,0.000396,-0.005628
53.189000,-0.320900,0.081600,0.00,0.02,0.002959,0.024249,-0.13,-0.10,-0.118336,-0.008190,4.324015,1.464411,-0.118336,-0.008190,0.002959,0.024249,0.000298,-0.000549
53.222000,-0.321100,0.082400,-0.00,0.02,0.002192,0.023450,0.04,-0.04,0.073236,-0.038855,5.870148,-1.267005,0.073236,-0.038855,0.002192,0.023450,0.000277,-0.000751
53.255000,-0.321400,0.083300,0.00,0.02,0.008212,0.021185,0.19,-0.05,0.280834,-0.094346,1.911050,-0.815189,0.280834,-0.094346,0.008212,0.021185,0.000258,0.000307
53.288000,-0.321100,0.083900,0.01,0.02,0.016440,0.017978,0.23,-0.12,0.203187,-0.094288,-3.155607,-2.043212,0.203187,-0.094288,0.016440,0.017978,0.000297,0.001645
53.322000,-0.320300,0.084500,0.02,0.02,0.021020,0.012410,0.11,-0.25,0.066253,-0.233284,-5.507989,-4.928873,0.066253,-0.233284,0.021020,0.012410,0.000298,-0.001502
53.355000,-0.319200,0.085100,0.02,0.01,0.019234,0.001143,-0.08,-0.42,-0.171356,-0.429451,-4.412248,-6.250555,-0.171356,-0.429451,0.019234,0.001143,0.000186,-0.003787
53.388000,-0.318400,0.085200,0.02,-0.01,0.012346,-0.017349,-0.22,-0.63,-0.233780,-0.658322,-1.017305,-5.255598,-0.233780,-0.658322,0.012346,-0.017349,0.000227,0.008535
53.422000,-0.318000,0.084400,0.01,-0.04,0.004283,-0.041917,-0.26,-0.83,-0.240533,-0.786832,1.427322,-3.825895,-0.240533,-0.786832,0.004283,-0.041917,0.000888,0.031951
53.455000,-0.318100,0.082900,-0.00,-0.07,-0.002130,-0.070907,-0.21,-0.90,-0.136722,-0.918483,1.552494,0.818666,-0.136722,-0.918483,-0.002130,-0.070907,0.002516,0.065418
53.489000,-0.318400,0.080100,-0.01,-0.10,-0.006749,-0.098951,-0.16,-0.73,-0.134964,-0.731163,-0.351454,10.948011,-0.134964,-0.731163,-0.006749,-0.098951,0.004918,0.073260
53.522000,-0.318700,0.075800,-0.01,-0.13,-0.011774,-0.114339,-0.16,-0.30,-0.160621,-0.174018,-1.283984,17.438757,-0.160621,-0.174018,-0.011774,-0.114339,0.006606,0.021788
53.555000,-0.319000,0.070900,-0.02,-0.13,-0.018283,-0.109568,-0.16,0.32,-0.222275,0.454673,1.423607,16.816412,-0.222275,0.454673,-0.018283,-0.109568,0.006170,-0.045754
53.589000,-0.319800,0.066500,-0.02,-0.10,-0.023147,-0.085357,-0.09,0.90,-0.063816,0.969498,4.263721,10.797735,-0.063816,0.969498,-0.023147,-0.085357,0.003911,-0.081276
53.622000,-0.320900,0.063500,-0.03,-0.06,-0.023081,-0.048664,0.03,1.23,0.067659,1.188919,3.704181,2.058088,0.067659,1.188919,-0.023081,-0.048664,0.001450,-0.059419
53.655000,-0.321900,0.062300,-0.02,-0.01,-0.018734,-0.009592,0.15,1.19,0.188068,1.109448,1.327984,-9.094557,0.188068,1.109448,-0.018734,-0.009592,0.000221,-0.014165
53.688000,-0.322400,0.062900,-0.01,0.03,-0.012852,0.018967,0.21,0.74,0.157961,0.570489,-0.221419,-18.134547,0.157961,0.570489,-0.012852,0.018967,0.000262,0.008791
53.722000,-0.322800,0.064700,-0.01,0.04,-0.007225,0.026563,0.20,0.02,0.173012,-0.123701,0.396450,-21.075941,0.173012,-0.123701,-0.007225,0.026563,0.000379,-0.004536
53.755000,-0.323000,0.066900,-0.00,0.03,-0.001140,0.009794,0.16,-0.67,0.184920,-0.862675,-2.303076,-12.683735,0.184920,-0.862675,-0.001140,0.009794,0.000049,-0.008660
53.789000,-0.322800,0.067600,0.00,-0.01,0.002282,-0.021637,0.06,-0.99,0.016403,-0.986195,-4.134176,3.914401,0.016403,-0.986195,0.002282,-0.021637,0.000237,0.021375
53.822000,-0.322600,0.066200,0.01,-0.05,0.000926,-0.048542,-0.10,-0.80,-0.096204,-0.596496,-4.465236,14.228111,-0.096204,-0.596496,0.000926,-0.048542,0.001179,0.028866
53.855000,-0.322300,0.063400,-0.00,-0.07,-0.005593,-0.059000,-0.24,-0.26,-0.287233,-0.018684,-2.493348,15.321059,-0.287233,-0.018684,-0.005593,-0.059000,0.001756,0.002709
53.889000,-0.322400,0.060500,-0.01,-0.07,-0.014994,-0.051747,-0.25,0.31,-0.265752,0.445336,3.716754,9.377335,-0.265752,0.445336,-0.014994,-0.051747,0.001451,-0.019060
53.922000,-0.323200,0.058500,-0.02,-0.04,-0.020098,-0.033654,-0.11,0.66,-0.034494,0.618975,6.352554,2.208196,-0.034494,0.618975,-0.020098,-0.033654,0.000768,-0.020138
53.955000,-0.324400,0.057500,-0.02,-0.02,-0.017858,-0.013008,0.06,0.69,0.166222,0.595494,2.526308,-3.369641,0.166222,0.595494,-0.017858,-0.013008,0.000244,-0.010715
53.989000,-0.325200,0.057500,-0.02,0.01,-0.012699,0.003743,0.10,0.49,0.137295,0.389839,-4.244798,-7.402340,0.137295,0.389839,-0.012699,0.003743,0.000088,-0.000284
54.022000,-0.325200,0.058300,-0.01,0.02,-0.012446,0.011936,0.00,0.19,-0.122424,0.092135,-5.162933,-7.307916,-0.122424,0.092135,-0.012446,0.011936,0.000149,0.002623
54.055000,-0.325300,0.059200,-0.01,0.02,-0.018161,0.011682,-0.12,-0.05,-0.213785,-0.107099,0.340248,-2.875754,-0.213785,-0.107099,-0.018161,0.011682,0.000233,0.002632
54.089000,-0.326100,0.059700,-0.02,0.01,-0.023484,0.008103,-0.14,-0.15,-0.099287,-0.103417,3.648692,0.210924,-0.099287,-0.103417,-0.023484,0.008103,0.000309,0.001494
54.122000,-0.327200,0.059900,-0.03,0.00,-0.024588,0.004768,-0.05,-0.14,0.034327,-0.092756,1.936958,0.403952,0.034327,-0.092756,-0.024588,0.004768,0.000314,-0.001286
54.155000,-0.328100,0.059900,-0.03,0.00,-0.023453,0.001900,0.03,-0.12,0.032426,-0.075948,0.294874,-0.533588,0.032426,-0.075948,-0.023453,0.001900,0.000277,-0.000905
54.189000,-0.328900,0.060000,-0.02,-0.00,-0.021977,-0.001585,0.07,-0.12,0.054378,-0.129040,0.159950,-1.081719,0.054378,-0.129040,-0.021977,-0.001585,0.000243,-0.000991
54.222000,-0.329600,0.060000,-0.02,-0.01,-0.020317,-0.006320,0.08,-0.12,0.043302,-0.149505,1.135917,1.002917,0.043302,-0.149505,-0.020317,-0.006320,0.000226,0.000065
54.256000,-0.330300,0.059600,-0.02,-0.01,-0.017343,-0.009896,0.12,-0.12,0.131620,-0.060842,2.548225,0.198889,0.131620,-0.060842,-0.017343,-0.009896,0.000199,-0.001681
54.289000,-0.330900,0.059100,-0.01,-0.01,-0.011424,-0.013242,0.21,-0.19,0.216582,-0.135980,2.522226,-5.948352,0.216582,-0.135980,-0.011424,-0.013242,0.000153,-0.000674
54.322000,-0.331400,0.058700,-0.00,-0.02,-0.002589,-0.023464,0.26,-0.50,0.303132,-0.465330,-0.427060,-15.587798,0.303132,-0.465330,-0.002589,-0.023464,0.000279,0.010134
54.356000,-0.331400,0.058300,0.01,-0.04,0.005753,-0.051706,0.19,-1.13,0.187542,-1.195951,-5.587436,-23.095431,0.187542,-1.195951,0.005753,-0.051706,0.001353,0.062917
54.389000,-0.330800,0.057000,0.01,-0.09,0.007635,-0.106646,0.00,-1.97,-0.076814,-2.035819,-6.515002,-23.409007,-0.076814,-2.035819,0.007635,-0.106646,0.005716,0.216525
54.422000,-0.330100,0.053600,0.01,-0.17,0.001986,-0.188647,-0.18,-2.76,-0.255478,-2.787763,-2.653141,-16.867708,-0.255478,-2.787763,0.001986,-0.188647,0.017796,0.525395
54.455000,-0.330000,0.046500,-0.00,-0.28,-0.006730,-0.290147,-0.27,-3.30,-0.257228,-3.182823,1.440292,-7.136831,-0.257228,-3.182823,-0.006730,-0.290147,0.042115,0.925217
54.489000,-0.330600,0.035100,-0.01,-0.40,-0.013781,-0.399897,-0.24,-3.54,-0.157539,-3.273068,2.342129,-2.092554,-0.157539,-3.273068,-0.013781,-0.399897,0.080054,1.311061
54.522000,-0.331200,0.019800,-0.02,-0.52,-0.018124,-0.512066,-0.12,-3.52,-0.097963,-3.325117,2.538606,2.278175,-0.097963,-3.325117,-0.018124,-0.512066,0.131270,1.704455
54.556000,-0.331800,0.000500,-0.02,-0.64,-0.019533,-0.621602,0.06,-3.28,0.015087,-3.118152,6.538064,9.783973,0.015087,-3.118152,-0.019533,-0.621602,0.193385,1.937954
54.589000,-0.332900,-0.022800,-0.02,-0.74,-0.013384,-0.719827,0.27,-2.80,0.346626,-2.659807,7.025364,19.184182,0.346626,-2.659807,-0.013384,-0.719827,0.259165,1.909961
54.622000,-0.333700,-0.049700,-0.00,-0.83,0.000886,-0.795875,0.42,-2.02,0.492811,-1.813627,0.564391,26.242301,0.492811,-1.813627,0.000886,-0.795875,0.316709,1.443858
54.656000,-0.333400,-0.079000,0.01,-0.88,0.015809,-0.841588,0.43,-1.04,0.385004,-0.875330,-5.519762,26.441085,0.385004,-0.875330,0.015809,-0.841588,0.354260,0.742754
54.689000,-0.332300,-0.109700,0.03,-0.90,0.024351,-0.856734,0.27,-0.18,0.117468,-0.015634,-5.490391,16.837420,0.117468,-0.015634,0.024351,-0.856734,0.367293,0.016254
54.722000,-0.331200,-0.140100,0.03,-0.88,0.026546,-0.852416,0.03,0.25,0.011658,0.269614,-4.167273,0.216341,0.011658,0.269614,0.026546,-0.852416,0.363659,-0.229514
54.756000,-0.330000,-0.168900,0.03,-0.87,0.023924,-0.847849,-0.15,0.22,-0.165907,-0.000922,-3.093768,-8.182878,-0.165907,-0.000922,0.023924,-0.847849,0.359710,-0.003187
54.789000,-0.329100,-0.196900,0.02,-0.87,0.017725,-0.852740,-0.22,0.02,-0.198719,-0.286821,0.273984,-0.691689,-0.198719,-0.286821,0.017725,-0.852740,0.363740,0.241062
54.822000,-0.328600,-0.226000,0.01,-0.87,0.011844,-0.858431,-0.21,-0.02,-0.147276,-0.047957,1.014194,10.182145,-0.147276,-0.047957,0.011844,-0.858431,0.368522,0.039424
54.856000,-0.328400,-0.255900,0.01,-0.88,0.007134,-0.852352,-0.16,0.21,-0.129753,0.405565,0.426719,9.850621,-0.129753,0.405565,0.007134,-0.852352,0.363278,-0.346610
54.889000,-0.328300,-0.285100,0.00,-0.86,0.002918,-0.834886,-0.14,0.55,-0.118259,0.621885,-0.819961,3.974862,-0.118259,0.621885,0.002918,-0.834886,0.348521,-0.519548
54.922000,-0.328100,-0.313400,-0.00,-0.83,-0.002246,-0.812824,-0.12,0.73,-0.185511,0.675855,1.418617,-0.664068,-0.185511,0.675855,-0.002246,-0.812824,0.330344,-0.548935
54.956000,-0.328300,-0.340800,-0.01,-0.81,-0.005770,-0.791530,-0.03,0.66,-0.021793,0.576728,4.976294,-4.112697,-0.021793,0.576728,-0.005770,-0.791530,0.313277,-0.456372
54.989000,-0.328800,-0.367000,-0.01,-0.79,-0.003542,-0.774990,0.09,0.54,0.152877,0.396192,3.398066,-1.432195,0.152877,0.396192,-0.003542,-0.774990,0.300311,-0.307586
55.022000,-0.329200,-0.392700,0.00,-0.78,0.002615,-0.760106,0.15,0.59,0.209275,0.479339,-1.360566,7.980797,0.209275,0.479339,0.002615,-0.760106,0.288884,-0.363801
55.056000,-0.328900,-0.418800,0.01,-0.76,0.007198,-0.735997,0.11,0.85,0.060359,0.938886,-4.112890,12.328628,0.060359,0.938886,0.007198,-0.735997,0.270871,-0.690582
55.089000,-0.328200,-0.444200,0.01,-0.72,0.007028,-0.697635,0.04,1.18,-0.070401,1.317686,-0.488198,5.929174,-0.070401,1.317686,0.007028,-0.697635,0.243372,-0.919758
55.122000,-0.328000,-0.467300,0.01,-0.67,0.006293,-0.652419,0.04,1.45,0.027161,1.342070,4.533715,2.406899,0.027161,1.342070,0.006293,-0.652419,0.212845,-0.875421
55.156000,-0.328100,-0.488600,0.01,-0.62,0.010798,-0.604421,0.15,1.68,0.237891,1.481355,4.702681,9.022157,0.237891,1.481355,0.010798,-0.604421,0.182721,-0.892793
55.189000,-0.327700,-0.508800,0.02,-0.56,0.020741,-0.545993,0.34,1.99,0.346944,1.955577,3.447602,14.414172,0.346944,1.955577,0.020741,-0.545993,0.149269,-1.060535
55.223000,-0.327000,-0.527000,0.03,-0.49,0.034668,-0.470902,0.49,2.43,0.472328,2.461519,3.054561,12.174933,0.472328,2.461519,0.034668,-0.470902,0.111475,-1.142760
55.256000,-0.325900,-0.542200,0.05,-0.40,0.052127,-0.381737,0.52,2.88,0.554654,2.783472,-2.096644,8.671968,0.554654,2.783472,0.052127,-0.381737,0.074220,-1.033643
55.289000,-0.323700,-0.554100,0.07,-0.30,0.067162,-0.282548,0.38,3.20,0.329757,3.051212,-8.745293,6.866844,0.329757,3.051212,0.067162,-0.282548,0.042172,-0.839966
55.323000,-0.320800,-0.562200,0.08,-0.19,0.072087,-0.175420,0.05,3.45,-0.040026,3.250417,-11.560026,7.678343,-0.040026,3.250417,0.072087,-0.175420,0.017984,-0.573074
55.356000,-0.317900,-0.566500,0.08,-0.07,0.063649,-0.059416,-0.41,3.75,-0.456325,3.573340,-11.653098,10.693076,-0.456325,3.573340,0.063649,-0.059416,0.003791,-0.241359
55.389000,-0.315300,-0.567100,0.05,0.06,0.041740,0.068949,-0.80,4.05,-0.832437,3.977547,-7.261214,7.938421,-0.832437,3.977547,0.041740,0.068949,0.003248,0.239501
55.423000,-0.313700,-0.563200,0.02,0.20,0.011438,0.206491,-0.94,4.15,-0.950088,4.113152,2.360200,-4.527561,-0.950088,4.113152,0.011438,0.206491,0.021385,0.838461
55.456000,-0.314000,-0.553700,-0.02,0.35,-0.016137,0.338799,-0.79,3.90,-0.671943,3.669672,10.208336,-17.029393,-0.671943,3.669672,-0.016137,0.338799,0.057522,1.254124
55.489000,-0.315600,-0.539100,-0.04,0.47,-0.031911,0.451421,-0.46,3.32,-0.255921,2.955154,9.091499,-19.070470,-0.255921,2.955154,-0.031911,0.451421,0.102400,1.342184
55.523000,-0.317200,-0.521000,-0.05,0.57,-0.037175,0.541997,-0.08,2.62,-0.053721,2.372880,6.609000,-14.497545,-0.053721,2.372880,-0.037175,0.541997,0.147572,1.288092
55.556000,-0.318800,-0.500500,-0.04,0.64,-0.034799,0.615815,0.22,2.02,0.193491,1.969321,7.069223,-12.379390,0.193491,1.969321,-0.034799,0.615815,0.190219,1.206004
55.589000,-0.320300,-0.477900,-0.03,0.70,-0.024250,0.675322,0.41,1.51,0.426986,1.531082,3.763861,-15.292638,0.426986,1.531082,-0.024250,0.675322,0.228324,1.023618
55.623000,-0.321200,-0.453400,-0.01,0.75,-0.009351,0.717150,0.46,0.97,0.449434,0.929421,-2.010891,-17.757401,0.449434,0.929421,-0.009351,0.717150,0.257196,0.662332
55.656000,-0.321200,-0.427500,0.00,0.77,0.003223,0.738451,0.35,0.43,0.290245,0.323579,-6.280537,-13.777218,0.290245,0.323579,0.003223,0.738451,0.272660,0.239883
55.689000,-0.320500,-0.401200,0.01,0.77,0.008537,0.743826,0.15,0.08,0.022357,-0.007430,-5.834378,-2.499477,0.022357,-0.007430,0.008537,0.743826,0.276675,-0.005336
55.723000,-0.319900,-0.375700,0.01,0.76,0.007107,0.746311,-0.07,0.08,-0.106492,0.153614,-3.291288,8.312389,-0.106492,0.153614,0.007107,0.746311,0.278515,0.113887
55.756000,-0.319600,-0.350800,0.01,0.77,0.001872,0.758405,-0.23,0.34,-0.201450,0.557813,-1.944989,8.177584,-0.201450,0.557813,0.001872,0.758405,0.287591,0.422671
55.789000,-0.319500,-0.325200,-0.00,0.79,-0.005611,0.779953,-0.28,0.63,-0.238752,0.709690,-0.872713,1.688216,-0.238752,0.709690,-0.005611,0.779953,0.304179,0.554864
55.823000,-0.319700,-0.298400,-0.01,0.82,-0.014104,0.803452,-0.26,0.74,-0.260795,0.672611,1.014541,-1.748060,-0.260795,0.672611,-0.014104,0.803452,0.322867,0.544089
55.856000,-0.320500,-0.270500,-0.02,0.84,-0.021423,0.824930,-0.24,0.73,-0.169763,0.590822,0.447683,1.262161,-0.169763,0.590822,-0.021423,0.824930,0.340484,0.491024
55.890000,-0.321400,-0.242000,-0.03,0.86,-0.028225,0.847868,-0.25,0.84,-0.230353,0.758438,-2.512589,8.399918,-0.230353,0.758438,-0.028225,0.847868,0.359838,0.649557
55.923000,-0.322300,-0.213100,-0.04,0.89,-0.037932,0.880515,-0.31,1.16,-0.340619,1.162016,-2.464376,13.483608,-0.340619,1.162016,-0.037932,0.880515,0.388373,1.036093
55.956000,-0.323600,-0.183300,-0.05,0.94,-0.050487,0.928750,-0.36,1.59,-0.397930,1.675324,1.502754,10.856020,-0.397930,1.675324,-0.050487,0.928750,0.432563,1.576047
55.990000,-0.325600,-0.151400,-0.06,1.00,-0.061305,0.989534,-0.28,1.84,-0.238432,1.900226,5.776360,-2.940139,-0.238432,1.900226,-0.061305,0.989534,0.491468,1.894956
56.023000,-0.328000,-0.116900,-0.07,1.07,-0.065446,1.046920,-0.05,1.51,-0.005138,1.475394,7.785884,-24.759457,-0.005138,1.475394,-0.065446,1.046920,0.550162,1.544956
56.056000,-0.330700,-0.079800,-0.07,1.12,-0.060586,1.075684,0.22,0.33,0.291008,0.216583,5.652734,-49.565375,0.291008,0.216583,-0.060586,1.075684,0.580383,0.215343
56.090000,-0.333100,-0.040600,-0.05,1.11,-0.049192,1.047150,0.32,-1.58,0.379248,-1.895051,-2.424726,-62.424788,0.379248,-1.895051,-0.049192,1.047150,0.549471,-2.003058
56.123000,-0.334500,-0.002600,-0.04,1.02,-0.040600,0.946453,0.19,-3.71,0.126127,-4.028303,-9.003012,-50.680428,0.126127,-4.028303,-0.040600,0.946453,0.448710,-3.817719
56.156000,-0.335200,0.030000,-0.04,0.85,-0.042416,0.787169,-0.07,-5.42,-0.232956,-5.341320,-6.569119,-26.483680,-0.232956,-5.341320,-0.042416,0.787169,0.310717,-4.194641
56.190000,-0.336300,0.055300,-0.05,0.64,-0.051826,0.597270,-0.23,-6.22,-0.320573,-5.829193,3.129253,-3.531694,-0.320573,-5.829193,-0.051826,0.597270,0.179709,-3.464990
56.223000,-0.338300,0.072700,-0.06,0.42,-0.057619,0.403289,-0.12,-6.07,-0.020167,-5.581475,9.179725,15.775645,-0.020167,-5.581475,-0.057619,0.403289,0.082981,-2.249785
56.256000,-0.340800,0.082400,-0.06,0.22,-0.052800,0.227544,0.18,-5.25,0.303648,-4.756449,7.352060,28.543474,0.303648,-4.756449,-0.052800,0.227544,0.027282,-1.098335
56.290000,-0.343100,0.086000,-0.05,0.06,-0.039482,0.084796,0.37,-4.01,0.479773,-3.640519,-1.697176,36.221583,0.479773,-3.640519,-0.039482,0.084796,0.004375,-0.327643
56.323000,-0.344100,0.085300,-0.03,-0.05,-0.028125,-0.016081,0.28,-2.49,0.188240,-2.293382,-9.870668,43.445645,0.188240,-2.293382,-0.028125,-0.016081,0.000525,0.031585
56.356000,-0.344300,0.081300,-0.02,-0.11,-0.028180,-0.066734,0.01,-0.85,-0.191433,-0.686215,-6.380447,46.141363,-0.191433,-0.686215,-0.028180,-0.066734,0.002624,0.051188
56.390000,-0.344900,0.075900,-0.03,-0.11,-0.035610,-0.064047,-0.20,0.59,-0.245630,0.844231,0.683841,31.044880,-0.245630,0.844231,-0.035610,-0.064047,0.002685,-0.045324
56.423000,-0.346300,0.072300,-0.04,-0.06,-0.042249,-0.025473,-0.20,1.44,-0.144931,1.424837,5.199219,4.595495,-0.144931,1.424837,-0.042249,-0.025473,0.001217,-0.030172
56.456000,-0.348200,0.071800,-0.05,0.01,-0.042878,0.018413,-0.03,1.45,0.107917,1.156725,4.584893,-15.686235,0.107917,1.156725,-0.042878,0.018413,0.001089,0.016672
56.490000,-0.349700,0.073900,-0.04,0.06,-0.038208,0.044166,0.18,0.76,0.166841,0.358173,2.690798,-22.838687,0.166841,0.358173,-0.038208,0.044166,0.001705,0.009445
56.523000,-0.351100,0.076900,-0.03,0.06,-0.030426,0.043518,0.29,-0.12,0.290891,-0.396306,1.636660,-16.597901,0.290891,-0.396306,-0.030426,0.043518,0.001410,-0.026097
56.557000,-0.352200,0.079200,-0.02,0.04,-0.020753,0.023683,0.27,-0.73,0.278134,-0.770485,-3.095162,-5.936697,0.278134,-0.770485,-0.020753,0.023683,0.000496,-0.024019
56.590000,-0.352600,0.079900,-0.01,0.00,-0.014657,-0.003016,0.13,-0.92,0.080420,-0.800001,-5.967692,2.816932,0.080420,-0.800001,-0.014657,-0.003016,0.000112,0.001234
56.623000,-0.352600,0.079100,-0.01,-0.03,-0.015460,-0.026457,-0.02,-0.77,-0.127669,-0.578933,-2.146543,6.476782,-0.127669,-0.578933,-0.015460,-0.026457,0.000470,0.017291
56.657000,-0.353000,0.077700,-0.02,-0.05,-0.018745,-0.042412,-0.06,-0.43,-0.065545,-0.359580,3.736168,8.757718,-0.065545,-0.359580,-0.018745,-0.042412,0.001075,0.016479
56.690000,-0.353900,0.075700,-0.02,-0.06,-0.017711,-0.048243,0.04,-0.01,0.126391,0.016591,4.929433,12.292120,0.126391,0.016591,-0.017711,-0.048243,0.001321,-0.003039
56.723000,-0.354800,0.073300,-0.02,-0.05,-0.010978,-0.039864,0.19,0.40,0.269657,0.476284,1.656289,10.929095,0.269657,0.476284,-0.010978,-0.039864,0.000855,-0.021947
56.756000,-0.355100,0.071600,-0.00,-0.03,-0.002330,-0.018851,0.27,0.73,0.239018,0.759770,-1.446650,5.354360,0.239018,0.759770,-0.002330,-0.018851,0.000180,-0.014880
56.790000,-0.354900,0.071200,0.01,0.00,0.004645,0.008351,0.26,0.94,0.171284,0.840380,-0.177083,1.865819,0.171284,0.840380,0.004645,0.008351,0.000046,0.007814
56.823000,-0.354600,0.071800,0.01,0.04,0.011415,0.037711,0.24,0.96,0.226977,0.886646,1.425558,-1.128885,0.226977,0.886646,0.011415,0.037711,0.000776,0.036027
56.857000,-0.354200,0.073500,0.02,0.07,0.019833,0.065765,0.25,0.81,0.268222,0.763616,0.208079,-6.661898,0.268222,0.763616,0.019833,0.065765,0.002359,0.055539
56.890000,-0.353500,0.076500,0.03,0.09,0.028492,0.086119,0.20,0.52,0.241126,0.433636,-4.180200,-11.051500,0.241126,0.433636,0.028492,0.086119,0.004114,0.044214
56.923000,-0.352200,0.080300,0.04,0.11,0.032319,0.093696,0.03,0.14,-0.016031,0.012114,-8.082809,-9.524931,-0.016031,0.012114,0.032319,0.093696,0.004912,0.000617
56.957000,-0.350700,0.084000,0.03,0.10,0.026802,0.090263,-0.23,-0.21,-0.308505,-0.214059,-6.708330,-6.609743,-0.308505,-0.214059,0.026802,0.090263,0.004433,-0.027590
56.990000,-0.349500,0.087300,0.02,0.09,0.013530,0.079189,-0.43,-0.49,-0.472198,-0.437348,-1.617100,-6.717540,-0.472198,-0.437348,0.013530,0.079189,0.003227,-0.041022
57.023000,-0.349100,0.089900,-0.00,0.07,-0.001611,0.060350,-0.44,-0.78,-0.418468,-0.670852,4.761082,-10.490092,-0.418468,-0.670852,-0.001611,0.060350,0.001822,-0.039812
57.057000,-0.349700,0.092000,-0.01,0.04,-0.011249,0.029384,-0.28,-1.15,-0.148444,-1.150675,6.460628,-13.045020,-0.148444,-1.150675,-0.011249,0.029384,0.000495,-0.032142
57.090000,-0.350600,0.093200,-0.02,-0.01,-0.013418,-0.016662,-0.07,-1.49,0.020855,-1.557913,2.718375,-6.466789,0.020855,-1.557913,-0.013418,-0.016662,0.000229,0.025678
57.123000,-0.351200,0.092400,-0.02,-0.07,-0.012444,-0.070184,0.04,-1.55,0.036405,-1.590416,-0.802414,9.045338,0.036405,-1.590416,-0.012444,-0.070184,0.002540,0.111168
57.157000,-0.351500,0.088700,-0.01,-0.12,-0.012399,-0.113249,0.05,-1.14,-0.033709,-0.942830,-0.740786,22.056056,-0.033709,-0.942830,-0.012399,-0.113249,0.006490,0.107192
57.190000,-0.351900,0.083200,-0.01,-0.15,-0.013209,-0.130817,0.02,-0.34,-0.013968,-0.090604,1.226958,23.841548,-0.013968,-0.090604,-0.013209,-0.130817,0.008644,0.012037
57.224000,-0.352400,0.077400,-0.01,-0.15,-0.012601,-0.120825,0.05,0.54,0.049724,0.678395,2.413276,18.886794,0.049724,0.678395,-0.012601,-0.120825,0.007379,-0.082594
57.257000,-0.352900,0.072600,-0.01,-0.11,-0.009204,-0.088999,0.13,1.18,0.150135,1.193698,2.726931,9.029593,0.150135,1.193698,-0.009204,-0.088999,0.004003,-0.107620
57.290000,-0.353300,0.069700,-0.01,-0.06,-0.002654,-0.046735,0.21,1.40,0.235155,1.292408,1.916814,-2.556035,0.235155,1.292408,-0.002654,-0.046735,0.001096,-0.061025
57.324000,-0.353400,0.068800,0.00,-0.01,0.006112,-0.007426,0.27,1.16,0.280478,1.019887,0.137890,-13.338605,0.280478,1.019887,0.006112,-0.007426,0.000046,-0.005860
57.357000,-0.353000,0.069700,0.01,0.03,0.015037,0.016463,0.27,0.57,0.244532,0.385382,-1.989797,-19.822931,0.244532,0.385382,0.015037,0.016463,0.000249,0.010022
57.390000,-0.352300,0.071600,0.02,0.04,0.021662,0.017438,0.18,-0.14,0.145172,-0.328072,-3.276967,-16.340072,0.145172,-0.328072,0.021662,0.017438,0.000387,-0.002576
57.423000,-0.351400,0.073100,0.03,0.01,0.024499,-0.000477,0.02,-0.63,0.021698,-0.725742,-5.118244,-4.118964,0.021698,-0.725742,0.024499,-0.000477,0.000300,0.000878
57.457000,-0.350200,0.073000,0.03,-0.02,0.021419,-0.023154,-0.14,-0.71,-0.202869,-0.608162,-4.155495,7.615332,-0.202869,-0.608162,0.021419,-0.023154,0.000497,0.009736
57.490000,-0.349300,0.071400,0.02,-0.04,0.013535,-0.037027,-0.23,-0.44,-0.260876,-0.207900,0.786625,10.123742,-0.260876,-0.207900,0.013535,-0.037027,0.000777,0.004167
57.524000,-0.349000,0.069400,0.01,-0.05,0.006561,-0.039197,-0.21,-0.05,-0.149378,0.080253,3.042905,6.772918,-0.149378,0.080253,0.006561,-0.039197,0.000790,-0.004126
57.557000,-0.349100,0.067800,0.00,-0.04,0.003104,-0.033537,-0.11,0.26,-0.053958,0.252659,2.546458,4.724313,-0.053958,0.252659,0.003104,-0.033537,0.000567,-0.008641
57.590000,-0.349200,0.066700,0.00,-0.03,0.002591,-0.022416,-0.02,0.47,0.023781,0.401506,0.507515,4.248453,0.023781,0.401506,0.002591,-0.022416,0.000255,-0.008939
57.624000,-0.349000,0.065800,0.00,-0.01,0.002665,-0.006384,0.04,0.53,-0.019447,0.541553,0.933041,0.435348,-0.019447,0.541553,0.002665,-0.006384,0.000024,-0.003509
57.657000,-0.349000,0.065600,0.00,0.01,0.003817,0.010151,0.09,0.41,0.087227,0.431110,2.784363,-8.760380,0.087227,0.431110,0.003817,0.010151,0.000059,0.004709
57.690000,-0.349000,0.066700,0.01,0.02,0.008188,0.016559,0.13,0.08,0.169890,-0.054152,0.407545,-12.836722,0.169890,-0.054152,0.008188,0.016559,0.000171,0.000494
57.724000,-0.348700,0.068100,0.01,0.02,0.013030,0.008128,0.12,-0.28,0.114940,-0.441787,-2.436331,-5.931765,0.114940,-0.441787,0.013030,0.008128,0.000118,-0.002093
57.757000,-0.348100,0.068500,0.02,-0.00,0.015056,-0.007160,0.04,-0.46,0.004219,-0.457512,-3.094424,3.444617,0.004219,-0.457512,0.015056,-0.007160,0.000139,0.003339
57.790000,-0.347300,0.067800,0.02,-0.02,0.013505,-0.018466,-0.05,-0.35,-0.095480,-0.207553,-1.345837,7.006264,-0.095480,-0.207553,0.013505,-0.018466,0.000262,0.002543
57.824000,-0.346800,0.066700,0.01,-0.03,0.010397,-0.021673,-0.09,-0.08,-0.087298,0.018913,1.380182,5.770241,-0.087298,0.018913,0.010397,-0.021673,0.000289,-0.001318
57.857000,-0.346700,0.065600,0.01,-0.02,0.008886,-0.018209,-0.09,0.15,-0.001628,0.184823,-0.206298,3.189530,-0.001628,0.184823,0.008886,-0.018209,0.000205,-0.003380
57.890000,-0.346400,0.064900,0.01,-0.01,0.007135,-0.011059,-0.10,0.24,-0.101326,0.235802,-2.772668,-1.050975,-0.101326,0.235802,0.007135,-0.011059,0.000087,-0.003331
57.924000,-0.346000,0.064700,0.00,-0.00,0.002180,-0.005123,-0.14,0.17,-0.190169,0.113357,-0.920539,-4.308070,-0.190169,0.113357,0.002180,-0.005123,0.000015,-0.000995
57.957000,-0.345900,0.064700,-0.00,-0.00,-0.003840,-0.004168,-0.12,-0.04,-0.163923,-0.057147,3.624916,-7.253850,-0.163923,-0.057147,-0.003840,-0.004168,0.000016,0.000868
57.990000,-0.346300,0.064900,-0.01,-0.01,-0.005669,-0.011597,0.01,-0.34,0.056325,-0.379905,6.811405,-9.771820,0.056325,-0.379905,-0.005669,-0.011597,0.000083,0.004087
58.024000,-0.346800,0.064800,-0.01,-0.02,0.000376,-0.030324,0.24,-0.71,0.299253,-0.721631,6.191860,-10.470423,0.299253,-0.721631,0.000376,-0.030324,0.000460,0.021995
58.057000,-0.347000,0.063800,0.01,-0.05,0.013579,-0.061154,0.43,-1.14,0.477371,-1.091894,2.379233,-12.914721,0.477371,-1.091894,0.013579,-0.061154,0.001962,0.073255
58.090000,-0.346500,0.061600,0.03,-0.10,0.029532,-0.106913,0.46,-1.69,0.461041,-1.599832,-4.084070,-18.951123,0.461041,-1.599832,0.029532,-0.106913,0.006151,0.184658
58.124000,-0.345100,0.057900,0.04,-0.16,0.040763,-0.174580,0.26,-2.41,0.199655,-2.380570,-9.613131,-23.332889,0.199655,-2.380570,0.040763,-0.174580,0.016070,0.423738
58.157000,-0.343100,0.051800,0.05,-0.25,0.040883,-0.269219,-0.08,-3.19,-0.192652,-3.186468,-9.703655,-20.616777,-0.192652,-3.186468,0.040883,-0.269219,0.037075,0.849983
58.191000,-0.341200,0.042100,0.04,-0.38,0.029784,-0.387692,-0.37,-3.79,-0.460194,-3.782511,-3.643509,-7.748989,-0.460194,-3.782511,0.029784,-0.387692,0.075596,1.452743
58.224000,-0.340100,0.027400,0.02,-0.52,0.014474,-0.515122,-0.42,-3.92,-0.440411,-3.713400,6.468396,7.781701,-0.440411,-3.713400,0.014474,-0.515122,0.132780,1.906481
58.257000,-0.340100,0.007400,0.00,-0.65,0.006641,-0.633557,-0.15,-3.55,-0.020343,-3.253355,12.980143,18.451412,-0.020343,-3.253355,0.006641,-0.633557,0.200719,2.061052
58.291000,-0.340600,-0.017100,0.00,-0.76,0.013813,-0.730662,0.30,-2.81,0.442239,-2.458704,11.086257,22.182078,0.442239,-2.458704,0.013813,-0.730662,0.267029,1.802591
58.324000,-0.340700,-0.044200,0.02,-0.84,0.033801,-0.802125,0.63,-1.87,0.733522,-1.744974,2.102864,24.370118,0.733522,-1.744974,0.033801,-0.802125,0.322273,1.424481
58.357000,-0.339300,-0.073600,0.05,-0.89,0.056220,-0.845416,0.65,-0.88,0.585234,-0.801536,-8.614962,27.900839,0.585234,-0.801536,0.056220,-0.845416,0.358944,0.710533
58.391000,-0.336600,-0.104500,0.08,-0.90,0.068680,-0.856453,0.33,-0.01,0.147705,0.152283,-12.322544,20.161043,0.147705,0.152283,0.068680,-0.856453,0.369114,-0.120279
58.424000,-0.333600,-0.134800,0.08,-0.88,0.066895,-0.844184,-0.14,0.53,-0.252699,0.569415,-9.850260,4.405931,-0.252699,0.569415,0.066895,-0.844184,0.358561,-0.497596
58.457000,-0.330800,-0.163400,0.06,-0.85,0.053723,-0.826822,-0.47,0.64,-0.522113,0.451886,-3.483445,-6.294608,-0.522113,0.451886,0.053723,-0.826822,0.343260,-0.401679
58.491000,-0.328900,-0.190900,0.04,-0.83,0.036525,-0.816736,-0.50,0.38,-0.489574,0.141382,6.258617,-7.523545,-0.489574,0.141382,0.036525,-0.816736,0.334196,-0.133353
58.524000,-0.328300,-0.218200,0.02,-0.82,0.026561,-0.815348,-0.26,0.04,-0.096527,-0.059715,10.003542,-4.635273,-0.096527,-0.059715,0.026561,-0.815348,0.332749,0.046125
58.557000,-0.328100,-0.245600,0.02,-0.83,0.028161,-0.819318,0.04,-0.13,0.190667,-0.173817,4.618563,0.517800,0.190667,-0.173817,0.028161,-0.819318,0.336037,0.147781
58.591000,-0.327400,-0.273500,0.03,-0.84,0.035101,-0.822689,0.20,-0.06,0.217536,-0.024504,-2.227478,6.310498,0.217536,-0.024504,0.035101,-0.822689,0.339025,0.027795
58.624000,-0.325900,-0.301800,0.04,-0.84,0.039465,-0.818766,0.14,0.16,0.039199,0.255297,-4.902049,7.074680,0.039199,0.255297,0.039465,-0.818766,0.335968,-0.207482
58.657000,-0.324200,-0.330000,0.04,-0.83,0.038163,-0.806664,-0.03,0.39,-0.115804,0.456574,-2.884435,3.715021,-0.115804,0.456574,0.038163,-0.806664,0.326082,-0.372721
58.691000,-0.322900,-0.357400,0.04,-0.81,0.033526,-0.790268,-0.18,0.51,-0.156943,0.507919,-1.721792,-0.958009,-0.156943,0.507919,0.033526,-0.790268,0.312824,-0.406653
58.724000,-0.321800,-0.383800,0.03,-0.79,0.026899,-0.774979,-0.28,0.52,-0.232886,0.391429,-3.523997,-0.388588,-0.232886,0.391429,0.026899,-0.774979,0.300658,-0.309614
58.757000,-0.320800,-0.409900,0.02,-0.78,0.016198,-0.760139,-0.36,0.54,-0.396575,0.481495,-1.510366,4.016018,-0.396575,0.481495,0.016198,-0.760139,0.289037,-0.372427
58.791000,-0.320300,-0.435600,0.00,-0.76,0.003752,-0.740657,-0.32,0.64,-0.335591,0.664518,4.885548,4.633000,-0.335591,0.664518,0.003752,-0.740657,0.274293,-0.493439
58.824000,-0.320400,-0.460700,-0.01,-0.73,-0.003048,-0.715819,-0.08,0.80,-0.064357,0.796538,11.163657,3.773751,-0.064357,0.796538,-0.003048,-0.715819,0.256203,-0.569981
58.858000,-0.321200,-0.484900,-0.01,-0.70,0.003059,-0.686619,0.29,0.95,0.423538,0.921133,10.095656,3.733373,0.423538,0.921133,0.003059,-0.686619,0.235727,-0.631172
58.891000,-0.321700,-0.507600,0.01,-0.67,0.020835,-0.653102,0.51,1.20,0.622147,1.050408,-1.545322,10.792201,0.622147,1.050408,0.020835,-0.653102,0.213488,-0.673061
58.924000,-0.320700,-0.529400,0.04,-0.63,0.036825,-0.607110,0.41,1.74,0.318456,1.655003,-11.084273,23.411159,0.318456,1.655003,0.036825,-0.607110,0.184970,-0.993042
58.958000,-0.318400,-0.550400,0.05,-0.56,0.040002,-0.534055,0.11,2.53,-0.131583,2.642367,-7.829541,25.630677,-0.131583,2.642367,0.040002,-0.534055,0.143407,-1.416433
58.991000,-0.316500,-0.568700,0.04,-0.46,0.034128,-0.431371,-0.10,3.30,-0.213953,3.397889,2.996351,13.686225,-0.213953,3.397889,0.034128,-0.431371,0.093623,-1.473052
59.024000,-0.315800,-0.582100,0.03,-0.33,0.031718,-0.312865,-0.08,3.78,0.072168,3.573030,6.191212,3.160457,0.072168,3.573030,0.031718,-0.312865,0.049445,-1.115587
59.057000,-0.315100,-0.590600,0.03,-0.20,0.036465,-0.190706,0.07,3.98,0.207050,3.612800,1.107215,4.079915,0.207050,3.612800,0.036465,-0.190706,0.018849,-0.681433
59.091000,-0.313700,-0.595200,0.04,-0.07,0.042491,-0.063830,0.18,4.06,0.147459,3.850464,-1.751911,5.659202,0.147459,3.850464,0.042491,-0.063830,0.002940,-0.239511
59.124000,-0.312100,-0.595700,0.05,0.07,0.046493,0.069587,0.15,4.08,0.087920,3.997626,-1.803629,-0.709062,0.087920,3.997626,0.046493,0.069587,0.003502,0.282271
59.158000,-0.310500,-0.591100,0.05,0.21,0.048409,0.202185,0.02,3.94,0.024812,3.802248,-3.772928,-10.624193,0.024812,3.802248,0.048409,0.202185,0.021611,0.769958
59.191000,-0.308600,-0.581400,0.05,0.34,0.045964,0.322501,-0.14,3.55,-0.168639,3.275181,-4.957854,-16.306407,-0.168639,3.275181,0.045964,0.322501,0.053060,1.048498
59.224000,-0.306800,-0.567900,0.04,0.45,0.037788,0.423967,-0.27,2.88,-0.312322,2.693412,-1.879175,-19.542033,-0.312322,2.693412,0.037788,0.423967,0.090588,1.130117
59.258000,-0.305600,-0.551100,0.03,0.53,0.027439,0.502843,-0.34,2.08,-0.296423,1.946323,0.344653,-21.876429,-0.296423,1.946323,0.027439,0.502843,0.126802,0.970561
59.291000,-0.304900,-0.531500,0.02,0.59,0.017489,0.556429,-0.32,1.38,-0.288885,1.205815,1.864471,-16.868136,-0.288885,1.205815,0.017489,0.556429,0.154960,0.665898
59.324000,-0.304500,-0.510800,0.01,0.62,0.009694,0.590516,-0.20,0.91,-0.169639,0.799289,4.184593,-5.185292,-0.169639,0.799289,0.009694,0.590516,0.174402,0.470349
59.358000,-0.304300,-0.490200,0.00,0.64,0.006736,0.618608,0.02,0.68,-0.004333,0.853215,7.792898,-1.767369,-0.004333,0.853215,0.006736,0.618608,0.191361,0.527777
59.391000,-0.304600,-0.468700,0.01,0.66,0.012787,0.644658,0.28,0.55,0.360278,0.679108,7.932879,-8.367543,0.360278,0.679108,0.012787,0.644658,0.207874,0.442400
59.424000,-0.304500,-0.446000,0.02,0.68,0.028009,0.661035,0.46,0.32,0.535103,0.284222,0.076693,-12.078256,0.535103,0.284222,0.028009,0.661035,0.218876,0.202868
59.458000,-0.303300,-0.422700,0.04,0.69,0.043319,0.663449,0.43,-0.02,0.365493,-0.142213,-6.933950,-8.496174,0.365493,-0.142213,0.043319,0.663449,0.221020,-0.078518
59.491000,-0.301300,-0.399600,0.06,0.68,0.050613,0.656041,0.18,-0.25,0.063594,-0.293517,-9.199732,-0.460756,0.063594,-0.293517,0.050613,0.656041,0.216476,-0.189341
59.525000,-0.299000,-0.377300,0.06,0.66,0.047273,0.648101,-0.17,-0.22,-0.260089,-0.173544,-7.777488,6.352012,-0.260089,-0.173544,0.047273,0.648101,0.211135,-0.124770
59.558000,-0.297100,-0.355900,0.04,0.66,0.034942,0.647504,-0.45,-0.01,-0.465275,0.138419,-3.677627,7.766597,-0.465275,0.138419,0.034942,0.647504,0.210241,0.073370
59.591000,-0.296000,-0.334200,0.02,0.66,0.018359,0.655885,-0.58,0.27,-0.510167,0.354584,-1.485141,4.049282,-0.510167,0.354584,0.018359,0.655885,0.215261,0.223200
59.624000,-0.295600,-0.311700,0.00,0.68,0.000060,0.668947,-0.60,0.50,-0.566265,0.413770,1.047741,4.301561,-0.566265,0.413770,0.000060,0.668947,0.223745,0.276757
59.658000,-0.295900,-0.289100,-0.02,0.70,-0.017028,0.686982,-0.49,0.63,-0.438921,0.647090,4.803618,3.724055,-0.438921,0.647090,-0.017028,0.686982,0.236117,0.452013
59.691000,-0.296800,-0.265700,-0.03,0.72,-0.028563,0.709322,-0.25,0.68,-0.239619,0.667006,8.608038,-0.358578,-0.239619,0.667006,-0.028563,0.709322,0.251976,0.479966
59.724000,-0.298500,-0.241000,-0.04,0.74,-0.030148,0.731247,0.01,0.76,0.146426,0.622707,5.839659,3.317206,0.146426,0.622707,-0.030148,0.731247,0.267815,0.450938
59.758000,-0.300000,-0.215600,-0.03,0.77,-0.024981,0.757006,0.09,1.06,0.157478,0.892576,-5.224862,16.818839,0.157478,0.892576,-0.024981,0.757006,0.286841,0.671752
59.791000,-0.300600,-0.190100,-0.02,0.80,-0.025855,0.802209,-0.11,1.68,-0.208865,1.766388,-11.558773,24.982305,-0.208865,1.766388,-0.025855,0.802209,0.322104,1.422412
59.825000,-0.300700,-0.163300,-0.03,0.87,-0.040090,0.876291,-0.43,2.40,-0.628518,2.591373,-6.189633,14.599668,-0.628518,2.591373,-0.040090,0.876291,0.384746,2.295994
59.858000,-0.301900,-0.133300,-0.06,0.97,-0.061481,0.967250,-0.57,2.64,-0.629760,2.759165,6.370924,-13.757167,-0.629760,2.759165,-0.061481,0.967250,0.469676,2.707521
59.891000,-0.304800,-0.098600,-0.08,1.08,-0.075507,1.042306,-0.39,1.85,-0.195296,1.655886,11.055386,-47.352629,-0.195296,1.655886,-0.075507,1.042306,0.546051,1.740685
59.925000,-0.308100,-0.060100,-0.09,1.13,-0.076753,1.062622,-0.04,-0.06,0.122006,-0.460813,5.872700,-68.067115,0.122006,-0.460813,-0.076753,1.062622,0.567528,-0.499035
59.958000,-0.311000,-0.020700,-0.08,1.09,-0.071210,1.004253,0.20,-2.56,0.204048,-2.972678,0.489100,-67.153715,0.204048,-2.972678,-0.071210,1.004253,0.506797,-2.999850
59.991000,-0.313400,0.015500,-0.07,0.95,-0.065102,0.868254,0.22,-4.86,0.155265,-5.027266,-2.756105,-45.011193,0.155265,-5.027266,-0.065102,0.868254,0.379051,-4.375050
60.025000,-0.315300,0.044800,-0.06,0.74,-0.062179,0.680222,0.10,-6.28,0.016633,-6.033439,-2.922105,-15.089768,0.016633,-6.033439,-0.062179,0.680222,0.233284,-4.105110
