Time,PosX,PosY,RawVelX,RawVelY,CalcVelX,CalcVelY,RawAccX,RawAccY,CalcAccX,CalcAccY
35.881000,-0.000000,0.000000,0.03,0.18,0.032353,0.189706,-0.64,-1.46,-0.865052,-0.778547
35.915000,0.002200,0.006700,0.03,0.18,0.032353,0.189706,-0.64,-1.46,-0.865052,-0.778547
35.948000,0.003800,0.013600,0.03,0.18,0.032353,0.189706,-0.64,-1.46,-0.865052,-0.778547
35.981000,0.004400,0.019600,0.00,0.14,0.000000,0.150000,-0.58,-1.62,-1.038062,-1.557093
36.015000,0.003800,0.023800,-0.01,0.08,-0.022059,0.089706,-0.42,-2.05,-0.259516,-1.989619
36.048000,0.002900,0.025700,-0.02,0.00,-0.025000,0.010294,-0.18,-2.40,0.086505,-2.681661
36.081000,0.002100,0.024500,-0.03,-0.09,-0.025000,-0.085294,0.04,-2.29,-0.086505,-2.941176
36.115000,0.001200,0.019900,-0.02,-0.16,-0.025000,-0.176471,0.19,-1.59,0.086505,-2.422145
36.148000,0.000400,0.012500,-0.01,-0.20,-0.014706,-0.226471,0.26,-0.38,0.519031,-0.519031
36.181000,0.000200,0.004500,-0.00,-0.19,0.004412,-0.211765,0.22,0.95,0.605536,1.384083
36.215000,0.000700,-0.001900,0.01,-0.13,0.011765,-0.139706,0.07,1.83,-0.173010,2.854671
36.248000,0.001000,-0.005000,0.00,-0.05,0.004412,-0.038235,-0.10,1.87,-0.259516,3.114187
36.281000,0.001000,-0.004500,-0.00,0.01,-0.002941,0.038235,-0.18,1.19,-0.173010,1.384083
36.315000,0.000800,-0.002400,-0.01,0.04,-0.011765,0.051471,-0.14,0.29,-0.346021,-0.605536
36.348000,0.000200,-0.001000,-0.01,0.02,-0.017647,0.020588,-0.03,-0.33,0.000000,-1.211073
36.381000,-0.000400,-0.001000,-0.01,-0.00,-0.013235,-0.007353,0.06,-0.47,0.259516,-0.432526
36.415000,-0.000700,-0.001500,-0.01,-0.02,-0.007353,-0.017647,0.13,-0.31,0.086505,-0.173010
36.448000,-0.000900,-0.002200,-0.00,-0.02,-0.004412,-0.020588,0.17,-0.08,0.086505,0.000000
36.481000,-0.001000,-0.002900,0.00,-0.02,0.000000,-0.020588,0.17,0.10,0.173010,-0.000000
36.515000,-0.000900,-0.003600,0.01,-0.01,0.010294,-0.016176,0.12,0.23,0.432526,0.259516
36.548000,-0.000300,-0.004000,0.01,-0.00,0.017647,-0.004412,0.03,0.27,-0.000000,0.432526
36.582000,0.000300,-0.003900,0.01,0.01,0.010294,0.011765,-0.04,0.18,-0.432526,0.519031
36.615000,0.000400,-0.003200,0.01,0.01,0.004412,0.019118,-0.12,0.02,0.086505,-0.086505
36.648000,0.000600,-0.002600,0.00,0.01,0.008824,0.010294,-0.20,-0.09,0.173010,-0.432526
36.681000,0.001000,-0.002500,-0.00,0.00,0.001471,-0.004412,-0.21,-0.03,-0.605536,-0.432526
36.715000,0.000700,-0.002900,-0.01,0.00,-0.020588,-0.004412,-0.11,0.11,-0.692042,0.432526
36.748000,-0.000400,-0.002800,-0.02,0.01,-0.027941,0.014706,0.09,0.15,0.259516,0.692042
36.782000,-0.001200,-0.001900,-0.01,0.02,-0.005882,0.026471,0.22,0.02,1.038062,-0.000000
36.815000,-0.000800,-0.001000,0.01,0.02,0.016176,0.019118,0.14,-0.18,0.259516,-0.432526
36.848000,-0.000100,-0.000600,0.01,0.00,0.013235,0.001471,-0.06,-0.29,-0.432526,-0.605536
36.882000,0.000100,-0.000900,-0.00,-0.01,-0.004412,-0.011765,-0.17,-0.20,-0.605536,-0.173010
36.915000,-0.000400,-0.001400,-0.01,-0.01,-0.017647,-0.016176,-0.08,0.02,-0.173010,-0.086505
36.948000,-0.001100,-0.002000,-0.01,-0.01,-0.013235,-0.011765,0.08,0.20,0.432526,0.346021
36.982000,-0.001300,-0.002200,-0.00,0.01,0.001471,0.007353,0.11,0.20,0.432526,0.778547
37.015000,-0.001000,-0.001500,0.00,0.01,0.010294,0.020588,-0.02,0.05,0.086505,-0.000000
37.048000,-0.000600,-0.000800,-0.00,0.01,0.002941,0.011765,-0.16,-0.13,-0.519031,-0.519031
37.082000,-0.000800,-0.000700,-0.01,-0.00,-0.017647,-0.004412,-0.13,-0.18,-0.692042,-0.432526
37.115000,-0.001800,-0.001100,-0.02,-0.01,-0.025000,-0.011765,0.06,-0.11,0.259516,0.000000
37.148000,-0.002500,-0.001500,-0.01,-0.01,-0.008824,-0.005882,0.24,-0.06,0.692042,0.346021
37.182000,-0.002400,-0.001500,0.01,-0.01,0.010294,-0.001471,0.26,-0.10,0.432526,-0.086505
37.215000,-0.001800,-0.001600,0.01,-0.01,0.017647,-0.008824,0.13,-0.19,0.000000,-0.346021
37.249000,-0.001200,-0.002100,0.01,-0.02,0.014706,-0.022059,-0.03,-0.23,-0.173010,-0.432526
37.282000,-0.000800,-0.003100,0.01,-0.03,0.008824,-0.032353,-0.11,-0.15,-0.173010,-0.173010
37.315000,-0.000600,-0.004300,0.00,-0.03,0.002941,-0.036765,-0.10,0.04,-0.173010,-0.086505
37.349000,-0.000600,-0.005600,0.00,-0.03,0.001471,-0.032353,-0.06,0.22,0.086505,0.346021
37.382000,-0.000500,-0.006500,0.00,-0.02,0.002941,-0.016176,-0.01,0.30,0.000000,0.605536
37.415000,-0.000400,-0.006700,0.00,-0.00,0.000000,0.001471,0.05,0.27,-0.173010,0.432526
37.448000,-0.000500,-0.006400,0.00,0.00,0.000000,0.004412,0.09,0.21,0.173010,-0.259516
37.482000,-0.000400,-0.006400,0.01,0.01,0.010294,0.002941,0.09,0.16,0.432526,0.173010
37.515000,0.000200,-0.006200,0.01,0.01,0.016176,0.013235,0.04,0.11,-0.086505,0.432526
37.549000,0.000700,-0.005500,0.01,0.02,0.010294,0.023529,-0.02,0.04,-0.259516,0.173010
37.582000,0.000900,-0.004600,0.01,0.02,0.005882,0.017647,-0.06,-0.03,0.000000,-0.519031
37.615000,0.001100,-0.004300,0.01,0.01,0.008824,0.007353,-0.10,-0.05,0.173010,-0.086505
37.649000,0.001500,-0.004100,0.00,0.01,0.008824,0.008824,-0.15,-0.04,-0.173010,0.173010
37.682000,0.001700,-0.003700,-0.00,0.01,-0.002941,0.014706,-0.18,-0.05,-0.519031,0.173010
37.715000,0.001300,-0.003100,-0.01,0.01,-0.016176,0.013235,-0.11,-0.06,-0.259516,-0.259516
37.749000,0.000600,-0.002800,-0.01,0.01,-0.016176,0.002941,0.03,-0.03,0.259516,-0.346021
37.782000,0.000200,-0.002900,-0.01,0.01,-0.007353,0.000000,0.14,0.05,0.259516,0.173010
37.815000,0.000100,-0.002800,-0.00,0.01,0.001471,0.010294,0.11,0.06,0.259516,0.432526
37.849000,0.000300,-0.002200,0.00,0.01,0.007353,0.020588,-0.03,-0.03,0.086505,0.173010
37.882000,0.000600,-0.001400,-0.00,0.01,0.001471,0.013235,-0.16,-0.14,-0.432526,-0.605536
37.915000,0.000400,-0.001300,-0.01,0.00,-0.014706,-0.002941,-0.15,-0.15,-0.519031,-0.346021
37.949000,-0.000400,-0.001600,-0.02,-0.00,-0.023529,-0.008824,-0.03,-0.06,0.000000,0.000000
37.982000,-0.001200,-0.001900,-0.01,-0.00,-0.014706,-0.002941,0.10,0.03,0.519031,0.346021
38.015000,-0.001400,-0.001800,-0.01,0.00,-0.001471,0.002941,0.18,0.06,0.259516,-0.000000
38.049000,-0.001300,-0.001700,-0.00,0.00,0.000000,0.002941,0.19,-0.01,-0.173010,0.000000
38.082000,-0.001400,-0.001600,0.01,0.00,0.001471,0.002941,0.15,-0.12,0.259516,0.000000
38.115000,-0.001200,-0.001500,0.01,-0.01,0.013235,-0.001471,0.10,-0.21,0.432526,-0.259516
38.149000,-0.000500,-0.001700,0.01,-0.02,0.016176,-0.014706,0.05,-0.21,-0.259516,-0.519031
38.182000,-0.000100,-0.002500,0.01,-0.02,0.010294,-0.027941,-0.02,-0.12,-0.086505,-0.259516
38.216000,0.000200,-0.003600,0.01,-0.02,0.010294,-0.026471,-0.09,0.00,0.086505,0.346021
38.249000,0.000600,-0.004300,0.01,-0.02,0.010294,-0.017647,-0.13,0.11,-0.086505,0.173010
38.282000,0.000900,-0.004800,0.00,-0.02,0.001471,-0.016176,-0.11,0.17,-0.432526,-0.086505
38.316000,0.000700,-0.005400,-0.00,-0.01,-0.007353,-0.013235,-0.04,0.21,-0.086505,0.259516
38.349000,0.000400,-0.005700,-0.00,-0.00,-0.002941,0.000000,0.05,0.18,0.346021,0.519031
38.382000,0.000500,-0.005400,0.00,0.01,0.004412,0.010294,0.10,0.08,0.086505,0.086505
38.416000,0.000700,-0.005000,0.01,0.01,0.007353,0.008824,0.09,-0.06,0.086505,-0.173010
38.449000,0.001000,-0.004800,0.01,0.00,0.008824,0.000000,0.04,-0.14,0.000000,-0.346021
38.482000,0.001300,-0.005000,0.01,-0.01,0.008824,-0.008824,0.00,-0.13,0.000000,-0.173010
38.516000,0.001600,-0.005400,0.01,-0.01,0.010294,-0.010294,-0.06,-0.06,0.086505,0.086505
38.549000,0.002000,-0.005700,0.01,-0.01,0.008824,-0.008824,-0.13,0.02,-0.173010,-0.000000
38.582000,0.002200,-0.006000,-0.00,-0.01,0.001471,-0.010294,-0.16,0.10,-0.259516,-0.086505
38.616000,0.002100,-0.006400,-0.01,-0.00,-0.010294,-0.005882,-0.11,0.13,-0.432526,0.346021
38.649000,0.001500,-0.006400,-0.01,0.00,-0.013235,0.005882,-0.04,0.14,0.259516,0.346021
38.682000,0.001200,-0.006000,-0.01,0.01,-0.002941,0.008824,-0.01,0.22,0.346021,-0.173010
38.716000,0.001300,-0.005800,-0.01,0.01,-0.002941,0.004412,-0.02,0.58,-0.346021,-0.086505
38.749000,0.001000,-0.005700,-0.01,0.03,-0.013235,0.016176,-0.01,1.30,-0.259516,0.778547
38.782000,0.000400,-0.004700,-0.01,0.09,-0.013235,0.070588,0.06,2.19,0.259516,2.422145
38.816000,0.000100,-0.000900,-0.01,0.19,-0.004412,0.173529,0.17,2.87,0.259516,3.633218
38.849000,0.000100,0.007100,0.00,0.30,0.001471,0.297059,0.24,2.99,0.086505,3.633218
38.883000,0.000200,0.019300,0.01,0.40,0.010294,0.405882,0.21,2.44,0.432526,2.768166
38.916000,0.000800,0.034700,0.02,0.47,0.023529,0.480882,0.06,1.26,0.346021,1.643599
38.949000,0.001800,0.052000,0.02,0.49,0.025000,0.510294,-0.14,-0.40,-0.259516,0.086505
38.983000,0.002500,0.069400,0.01,0.45,0.010294,0.475000,-0.36,-2.31,-0.605536,-2.162630
39.016000,0.002500,0.084300,-0.01,0.34,-0.007353,0.360294,-0.49,-4.05,-0.432526,-4.584775
39.049000,0.002000,0.093900,-0.03,0.17,-0.025000,0.175000,-0.49,-5.02,-0.605536,-6.314879
39.083000,0.000800,0.096200,-0.04,-0.03,-0.045588,-0.039706,-0.37,-4.71,-0.605536,-6.314879
39.116000,-0.001100,0.091200,-0.05,-0.18,-0.055882,-0.217647,-0.20,-3.11,0.000000,-4.152249
39.149000,-0.003000,0.081400,-0.06,-0.25,-0.054412,-0.294118,0.01,-0.80,0.086505,-0.346021
39.183000,-0.004800,0.071200,-0.05,-0.23,-0.054412,-0.251471,0.23,1.29,-0.086505,2.854671
39.216000,-0.006700,0.064300,-0.04,-0.14,-0.045588,-0.139706,0.36,2.44,0.605536,3.719723
39.249000,-0.007900,0.061700,-0.02,-0.04,-0.020588,-0.023529,0.33,2.42,0.865052,3.114187
39.283000,-0.008100,0.062700,-0.01,0.04,-0.002941,0.060294,0.14,1.52,0.173010,1.816609
39.316000,-0.008100,0.065800,-0.01,0.07,-0.008824,0.094118,-0.10,0.31,-0.519031,0.173010
39.349000,-0.008700,0.069100,-0.02,0.06,-0.025000,0.067647,-0.27,-0.71,-0.432526,-1.730104
39.383000,-0.009800,0.070400,-0.04,0.01,-0.035294,0.008824,-0.31,-1.24,-0.173010,-1.730104
39.416000,-0.011100,0.069700,-0.05,-0.04,-0.044118,-0.044118,-0.24,-1.15,-0.346021,-1.384083
39.449000,-0.012800,0.067400,-0.05,-0.08,-0.052941,-0.088235,-0.12,-0.58,-0.173010,-1.211073
39.483000,-0.014700,0.063700,-0.05,-0.08,-0.055882,-0.101471,-0.03,0.17,-0.000000,0.432526
39.516000,-0.016600,0.060500,-0.05,-0.06,-0.050000,-0.066176,0.02,0.73,0.346021,1.643599
39.550000,-0.018100,0.059200,-0.05,-0.02,-0.045588,-0.016176,-0.00,0.87,-0.086505,1.297578
39.583000,-0.019700,0.059400,-0.05,0.01,-0.050000,0.017647,-0.08,0.56,-0.173010,0.692042
39.616000,-0.021500,0.060400,-0.06,0.02,-0.054412,0.027941,-0.16,0.10,-0.086505,-0.086505
39.649000,-0.023400,0.061300,-0.06,0.01,-0.058824,0.010294,-0.22,-0.18,-0.173010,-0.951557
39.683000,-0.025500,0.061100,-0.07,-0.00,-0.069118,-0.011765,-0.25,-0.28,-0.432526,-0.346021
39.716000,-0.028100,0.060500,-0.08,-0.01,-0.080882,-0.007353,-0.26,-0.37,-0.259516,0.605536
39.749000,-0.031000,0.060600,-0.09,-0.02,-0.085294,-0.007353,-0.28,-0.46,0.000000,-0.605536
39.783000,-0.033900,0.060000,-0.10,-0.04,-0.092647,-0.044118,-0.27,-0.44,-0.432526,-1.557093
39.816000,-0.037300,0.057600,-0.11,-0.06,-0.107353,-0.076471,-0.23,-0.18,-0.432526,-0.346021
39.850000,-0.041200,0.054800,-0.11,-0.06,-0.116176,-0.067647,-0.19,0.21,-0.086505,0.865052
39.883000,-0.045200,0.053000,-0.12,-0.04,-0.116176,-0.035294,-0.22,0.40,0.086505,1.038062
39.916000,-0.049100,0.052400,-0.12,-0.02,-0.116176,-0.010294,-0.38,0.26,-0.086505,0.432526
39.950000,-0.053100,0.052300,-0.14,-0.02,-0.132353,-0.013235,-0.58,-0.01,-0.865052,-0.605536
39.983000,-0.058100,0.051500,-0.17,-0.03,-0.164706,-0.030882,-0.63,-0.21,-1.038062,-0.432526
40.016000,-0.064300,0.050200,-0.19,-0.04,-0.195588,-0.038235,-0.51,-0.29,-0.778547,0.000000
40.050000,-0.071400,0.048900,-0.20,-0.05,-0.204412,-0.041176,-0.26,-0.27,0.259516,-0.173010
40.083000,-0.078200,0.047400,-0.21,-0.06,-0.200000,-0.055882,0.01,-0.09,0.000000,-0.692042
40.116000,-0.085000,0.045100,-0.20,-0.06,-0.201471,-0.070588,0.23,0.27,-0.086505,-0.173010
40.150000,-0.091900,0.042600,-0.19,-0.04,-0.192647,-0.054412,0.31,0.65,0.605536,1.124567
40.183000,-0.098100,0.041400,-0.18,-0.01,-0.167647,-0.005882,0.15,0.78,0.865052,1.730104
40.216000,-0.103300,0.042200,-0.17,0.02,-0.154412,0.036765,-0.22,0.54,-0.086505,0.778547
40.250000,-0.108600,0.043900,-0.19,0.03,-0.177941,0.039706,-0.55,0.13,-1.297578,-0.605536
40.283000,-0.115400,0.044900,-0.22,0.02,-0.222059,0.022059,-0.55,-0.16,-1.297578,-0.432526
40.317000,-0.123700,0.045400,-0.24,0.01,-0.248529,0.010294,-0.21,-0.15,-0.259516,-0.259516
40.350000,-0.132300,0.045600,-0.23,0.01,-0.236765,0.004412,0.19,0.07,0.951557,-0.086505
40.383000,-0.139800,0.045700,-0.22,0.02,-0.208824,0.011765,0.28,0.29,0.692042,0.519031
40.416000,-0.146500,0.046400,-0.20,0.03,-0.189706,0.035294,-0.10,0.46,0.432526,0.865052
40.450000,-0.152700,0.048100,-0.22,0.05,-0.194118,0.051471,-0.71,0.64,-0.692042,0.086505
40.483000,-0.159700,0.049900,-0.26,0.07,-0.241176,0.060294,-1.07,0.86,-2.076125,0.432526
40.517000,-0.169100,0.052200,-0.30,0.11,-0.313235,0.095588,-0.86,1.02,-2.162630,1.643599
40.550000,-0.181000,0.056400,-0.33,0.15,-0.347059,0.151471,-0.23,0.95,0.173010,1.643599
40.583000,-0.192700,0.062500,-0.32,0.18,-0.314706,0.188235,0.37,0.58,1.730104,0.519031
40.617000,-0.202400,0.069200,-0.29,0.19,-0.270588,0.194118,0.64,0.10,0.865052,-0.173010
40.650000,-0.211100,0.075700,-0.27,0.18,-0.257353,0.176471,0.67,-0.23,-0.086505,-0.865052
40.683000,-0.219900,0.081200,-0.25,0.17,-0.252941,0.157353,0.70,-0.43,0.346021,-0.259516
40.717000,-0.228300,0.086400,-0.22,0.15,-0.225000,0.154412,0.77,-0.69,1.297578,0.086505
40.750000,-0.235200,0.091700,-0.19,0.13,-0.180882,0.141176,0.71,-1.05,1.297578,-0.865052
40.783000,-0.240600,0.096000,-0.17,0.08,-0.155882,0.088235,0.51,-1.31,0.173010,-2.249135
40.817000,-0.245800,0.097700,-0.16,0.03,-0.157353,0.016176,0.33,-1.28,-0.259516,-1.989619
40.850000,-0.251300,0.097100,-0.15,-0.01,-0.157353,-0.023529,0.30,-1.07,0.259516,-0.346021
40.883000,-0.256500,0.096100,-0.14,-0.04,-0.139706,-0.029412,0.33,-0.86,0.778547,0.000000
40.917000,-0.260800,0.095100,-0.13,-0.06,-0.119118,-0.054412,0.28,-0.67,0.432526,-1.470588
40.950000,-0.264600,0.092400,-0.12,-0.09,-0.113235,-0.100000,0.13,-0.40,-0.086505,-1.211073
40.983000,-0.268500,0.088300,-0.12,-0.10,-0.116176,-0.110294,-0.03,-0.11,-0.086505,0.605536
41.017000,-0.272500,0.084900,-0.12,-0.09,-0.120588,-0.079412,-0.10,0.01,-0.173010,1.211073
41.050000,-0.276700,0.082900,-0.13,-0.08,-0.126471,-0.064706,-0.06,-0.14,-0.173010,-0.346021
41.083000,-0.281100,0.080500,-0.13,-0.10,-0.129412,-0.094118,-0.01,-0.33,0.000000,-1.384083
41.117000,-0.285500,0.076500,-0.13,-0.12,-0.123529,-0.125000,0.02,-0.30,0.346021,-0.432526
41.150000,-0.289500,0.072000,-0.13,-0.12,-0.122059,-0.126471,0.06,-0.04,-0.259516,0.346021
41.184000,-0.293800,0.067900,-0.12,-0.12,-0.127941,-0.114706,0.11,0.24,-0.086505,0.346021
41.217000,-0.298200,0.064200,-0.12,-0.10,-0.120588,-0.101471,0.12,0.41,0.519031,0.432526
41.250000,-0.302000,0.061000,-0.11,-0.09,-0.105882,-0.088235,0.06,0.52,0.346021,0.346021
41.283000,-0.305400,0.058200,-0.11,-0.07,-0.107353,-0.070588,-0.03,0.58,-0.432526,0.692042
41.317000,-0.309300,0.056200,-0.12,-0.05,-0.119118,-0.045588,-0.09,0.52,-0.259516,0.778547
41.350000,-0.313500,0.055100,-0.12,-0.03,-0.122059,-0.020588,-0.05,0.31,0.086505,0.692042
41.384000,-0.317600,0.054800,-0.12,-0.02,-0.120588,-0.016176,0.01,0.08,-0.000000,-0.432526
41.417000,-0.321700,0.054000,-0.12,-0.03,-0.116176,-0.030882,0.02,-0.04,0.259516,-0.432526
41.450000,-0.325500,0.052700,-0.12,-0.03,-0.114706,-0.036765,0.01,-0.03,-0.173010,0.086505
41.484000,-0.329500,0.051500,-0.12,-0.03,-0.120588,-0.029412,0.07,0.07,-0.173010,0.346021
41.517000,-0.333700,0.050700,-0.12,-0.03,-0.120588,-0.025000,0.19,0.20,0.173010,-0.086505
41.550000,-0.337700,0.049800,-0.11,-0.02,-0.107353,-0.023529,0.32,0.33,0.605536,0.173010
41.584000,-0.341000,0.049100,-0.09,-0.00,-0.089706,-0.008824,0.38,0.41,0.432526,0.692042
41.617000,-0.343800,0.049200,-0.08,0.01,-0.077941,0.016176,0.38,0.38,0.259516,0.778547
41.650000,-0.346300,0.050200,-0.07,0.03,-0.070588,0.032353,0.39,0.24,0.173010,0.173010
41.684000,-0.348600,0.051400,-0.06,0.03,-0.058824,0.030882,0.42,0.09,0.519031,-0.259516
41.717000,-0.350300,0.052300,-0.04,0.03,-0.038235,0.023529,0.33,0.03,0.692042,-0.173010
41.750000,-0.351200,0.053000,-0.03,0.03,-0.019118,0.025000,0.04,0.03,0.432526,0.259516
41.784000,-0.351600,0.054000,-0.03,0.03,-0.020588,0.033824,-0.36,0.01,-0.519031,0.259516
41.817000,-0.352600,0.055300,-0.06,0.03,-0.051471,0.035294,-0.57,-0.05,-1.297578,-0.173010
41.851000,-0.355100,0.056400,-0.08,0.03,-0.091176,0.025000,-0.34,-0.03,-1.038062,-0.432526
41.884000,-0.358800,0.057000,-0.09,0.02,-0.105882,0.016176,0.24,0.13,0.173010,-0.086505
41.917000,-0.362300,0.057500,-0.07,0.03,-0.075000,0.025000,0.75,0.34,1.643599,0.605536
41.950000,-0.363900,0.058700,-0.03,0.05,-0.017647,0.051471,0.83,0.42,1.730104,0.951557
41.984000,-0.363500,0.061000,0.00,0.07,0.019118,0.073529,0.46,0.28,0.432526,0.346021
42.017000,-0.362600,0.063700,0.01,0.07,0.014706,0.076471,-0.05,0.04,-0.692042,-0.173010
42.050000,-0.362500,0.066200,-0.01,0.07,-0.008824,0.064706,-0.34,-0.11,-0.692042,-0.519031
42.084000,-0.363200,0.068100,-0.03,0.06,-0.029412,0.052941,-0.26,-0.13,-0.519031,-0.173010
42.117000,-0.364500,0.069800,-0.03,0.06,-0.038235,0.054412,0.03,-0.10,0.000000,0.259516
42.151000,-0.365800,0.071800,-0.02,0.06,-0.026471,0.060294,0.29,-0.11,0.692042,0.086505
42.184000,-0.366300,0.073900,-0.01,0.05,-0.001471,0.051471,0.37,-0.15,0.778547,-0.605536
42.217000,-0.365900,0.075300,0.01,0.04,0.013235,0.038235,0.28,-0.21,0.086505,-0.173010
42.251000,-0.365400,0.076500,0.01,0.04,0.014706,0.038235,0.11,-0.28,-0.000000,0.173010
42.284000,-0.364900,0.077900,0.01,0.03,0.014706,0.033824,-0.07,-0.37,0.000000,-0.432526
42.317000,-0.364400,0.078800,0.01,0.01,0.011765,0.011765,-0.19,-0.47,-0.173010,-0.865052
42.351000,-0.364100,0.078700,-0.00,-0.01,0.000000,-0.008824,-0.19,-0.50,-0.519031,-0.346021
42.384000,-0.364400,0.078200,-0.01,-0.02,-0.013235,-0.022059,-0.06,-0.41,-0.259516,-0.432526
42.417000,-0.365000,0.077200,-0.01,-0.04,-0.013235,-0.036765,0.11,-0.23,0.259516,-0.432526
42.450000,-0.365300,0.075700,0.00,-0.04,0.002941,-0.045588,0.18,-0.04,0.692042,-0.086505
42.484000,-0.364800,0.074100,0.01,-0.04,0.017647,-0.036765,0.08,0.08,0.173010,0.605536
42.518000,-0.364100,0.073200,0.01,-0.03,0.014706,-0.025000,-0.08,0.09,-0.346021,0.086505
42.551000,-0.363800,0.072400,0.00,-0.03,0.000000,-0.026471,-0.16,0.05,-0.519031,-0.173010
42.584000,-0.364100,0.071400,-0.00,-0.03,-0.010294,-0.030882,-0.14,0.03,-0.086505,-0.086505
42.617000,-0.364500,0.070300,-0.01,-0.03,-0.005882,-0.030882,-0.10,0.04,0.346021,0.086505
42.651000,-0.364500,0.069300,-0.01,-0.02,-0.002941,-0.022059,-0.10,0.01,-0.173010,0.432526
42.684000,-0.364700,0.068800,-0.01,-0.02,-0.014706,-0.017647,-0.07,-0.10,-0.519031,-0.173010
42.717000,-0.365500,0.068100,-0.02,-0.03,-0.025000,-0.029412,0.04,-0.21,-0.086505,-0.519031
42.751000,-0.366400,0.066800,-0.01,-0.04,-0.017647,-0.044118,0.17,-0.21,0.519031,-0.346021
42.784000,-0.366700,0.065100,-0.00,-0.05,0.002941,-0.051471,0.20,-0.09,0.692042,-0.086505
42.817000,-0.366200,0.063300,0.00,-0.05,0.011765,-0.051471,0.12,0.11,-0.173010,0.086505
42.851000,-0.365900,0.061600,0.01,-0.04,0.002941,-0.044118,0.04,0.27,-0.346021,0.346021
42.884000,-0.366000,0.060300,0.00,-0.03,0.000000,-0.027941,0.04,0.32,0.173010,0.605536
42.918000,-0.365900,0.059700,0.01,-0.02,0.005882,-0.010294,0.06,0.26,0.173010,0.432526
42.951000,-0.365600,0.059600,0.01,-0.01,0.013235,-0.007353,0.03,0.20,0.259516,-0.259516
42.984000,-0.365000,0.059200,0.01,-0.01,0.014706,-0.011765,-0.04,0.20,-0.173010,-0.000000
43.017000,-0.364600,0.058800,0.01,0.00,0.004412,-0.002941,-0.06,0.23,-0.432526,0.519031
43.051000,-0.364700,0.059000,0.00,0.01,-0.001471,0.014706,-0.02,0.21,0.086505,0.519031
43.084000,-0.364700,0.059800,0.01,0.02,0.005882,0.022059,0.02,0.11,0.346021,-0.086505
43.118000,-0.364300,0.060500,0.01,0.02,0.011765,0.019118,-0.02,-0.01,0.000000,-0.086505
43.151000,-0.363900,0.061100,0.01,0.01,0.008824,0.013235,-0.12,-0.04,-0.173010,-0.259516
43.184000,-0.363700,0.061400,-0.00,0.01,0.000000,0.010294,-0.22,0.04,-0.346021,0.086505
43.218000,-0.363900,0.061800,-0.01,0.02,-0.011765,0.014706,-0.22,0.16,-0.346021,0.173010
43.251000,-0.364500,0.062400,-0.02,0.02,-0.019118,0.022059,-0.16,0.24,-0.086505,0.259516
43.284000,-0.365200,0.063300,-0.02,0.03,-0.020588,0.033824,-0.07,0.20,-0.000000,0.432526
43.318000,-0.365900,0.064700,-0.02,0.04,-0.022059,0.045588,0.05,0.04,-0.086505,0.259516
43.351000,-0.366700,0.066400,-0.02,0.04,-0.023529,0.044118,0.18,-0.17,0.000000,-0.346021
43.384000,-0.367500,0.067700,-0.01,0.03,-0.014706,0.029412,0.26,-0.31,0.519031,-0.519031
43.418000,-0.367700,0.068400,0.00,0.01,0.004412,0.010294,0.23,-0.30,0.605536,-0.605536
43.451000,-0.367200,0.068400,0.01,0.00,0.014706,0.000000,0.09,-0.20,-0.000000,0.000000
43.484000,-0.366700,0.068400,0.01,0.00,0.010294,0.001471,-0.06,-0.07,-0.259516,0.086505
43.518000,-0.366500,0.068500,0.00,0.00,0.000000,0.001471,-0.14,0.03,-0.346021,-0.086505
43.551000,-0.366700,0.068500,-0.00,0.00,-0.007353,0.001471,-0.12,0.05,-0.086505,0.086505
43.585000,-0.367000,0.068600,-0.01,0.01,-0.005882,0.008824,-0.07,-0.01,0.173010,0.346021
43.618000,-0.367100,0.069100,-0.01,0.01,-0.005882,0.011765,-0.02,-0.10,-0.173010,-0.173010
43.651000,-0.367400,0.069400,-0.01,-0.00,-0.011765,-0.001471,0.05,-0.21,-0.173010,-0.605536
43.685000,-0.367900,0.069000,-0.01,-0.01,-0.010294,-0.013235,0.15,-0.28,0.259516,-0.086505
43.718000,-0.368100,0.068500,0.00,-0.02,0.000000,-0.017647,0.23,-0.26,0.346021,-0.173010
43.751000,-0.367900,0.067800,0.01,-0.03,0.011765,-0.027941,0.20,-0.16,0.346021,-0.432526
43.785000,-0.367300,0.066600,0.02,-0.03,0.022059,-0.039706,0.03,0.00,0.259516,-0.259516
43.818000,-0.366400,0.065100,0.01,-0.03,0.022059,-0.032353,-0.19,0.13,-0.259516,0.692042
43.851000,-0.365800,0.064400,0.00,-0.02,0.004412,-0.014706,-0.30,0.17,-0.778547,0.346021
43.885000,-0.366100,0.064100,-0.01,-0.01,-0.016176,-0.010294,-0.25,0.10,-0.432526,-0.086505
43.918000,-0.366900,0.063700,-0.02,-0.01,-0.022059,-0.014706,-0.06,0.02,0.086505,-0.173010
43.951000,-0.367600,0.063100,-0.01,-0.02,-0.014706,-0.017647,0.14,-0.01,0.346021,0.000000
43.985000,-0.367900,0.062500,-0.00,-0.02,-0.004412,-0.014706,0.21,-0.01,0.259516,0.173010
44.018000,-0.367900,0.062100,0.00,-0.01,0.005882,-0.013235,0.14,-0.04,0.346021,-0.086505
44.051000,-0.367500,0.061600,0.01,-0.02,0.011765,-0.016176,0.00,-0.07,0.000000,-0.086505
44.085000,-0.367100,0.061000,0.00,-0.02,0.002941,-0.020588,-0.11,-0.06,-0.519031,-0.173010
44.118000,-0.367300,0.060200,-0.00,-0.02,-0.007353,-0.025000,-0.15,0.05,-0.086505,-0.086505
44.151000,-0.367600,0.059300,-0.01,-0.02,-0.007353,-0.023529,-0.09,0.22,0.086505,0.173010
44.185000,-0.367800,0.058600,-0.01,-0.01,-0.010294,-0.011765,0.08,0.39,-0.259516,0.519031
44.218000,-0.368300,0.058500,-0.01,0.01,-0.013235,0.007353,0.28,0.47,0.086505,0.605536
44.251000,-0.368700,0.059100,0.01,0.03,0.004412,0.027941,0.39,0.45,0.951557,0.605536
44.285000,-0.368000,0.060400,0.03,0.04,0.033824,0.042647,0.33,0.33,0.778547,0.259516
44.318000,-0.366400,0.062000,0.04,0.05,0.042647,0.050000,0.13,0.16,-0.259516,0.173010
44.351000,-0.365100,0.063800,0.03,0.05,0.032353,0.051471,-0.09,-0.01,-0.346021,-0.086505
44.385000,-0.364200,0.065500,0.03,0.05,0.025000,0.048529,-0.22,-0.16,-0.086505,-0.086505
44.418000,-0.363400,0.067100,0.02,0.04,0.020588,0.039706,-0.24,-0.26,-0.173010,-0.432526
44.451000,-0.362800,0.068200,0.01,0.03,0.008824,0.026471,-0.18,-0.29,-0.519031,-0.346021
44.485000,-0.362800,0.068900,0.00,0.02,-0.002941,0.016176,-0.09,-0.24,-0.173010,-0.259516
44.518000,-0.363000,0.069300,0.00,0.01,0.001471,0.008824,-0.02,-0.13,0.432526,-0.173010
44.552000,-0.362700,0.069500,0.01,0.01,0.010294,0.005882,-0.00,-0.05,0.086505,-0.000000
44.585000,-0.362300,0.069700,0.00,0.01,0.005882,0.010294,-0.04,-0.04,-0.346021,0.259516
44.618000,-0.362300,0.070200,0.00,0.01,-0.001471,0.013235,-0.06,-0.08,-0.086505,-0.086505
44.652000,-0.362400,0.070600,-0.00,0.00,-0.001471,0.002941,-0.04,-0.07,0.086505,-0.519031
44.685000,-0.362400,0.070400,-0.00,-0.00,0.001471,-0.007353,-0.00,0.03,0.086505,-0.086505
44.718000,-0.362300,0.070100,-0.00,0.00,0.000000,0.000000,0.04,0.15,-0.173010,0.519031
44.751000,-0.362400,0.070400,0.00,0.01,-0.001471,0.016176,0.09,0.16,0.086505,0.432526
44.785000,-0.362400,0.071200,0.01,0.02,0.004412,0.025000,0.10,0.03,0.259516,0.086505
44.818000,-0.362100,0.072100,0.01,0.02,0.011765,0.017647,0.08,-0.09,0.173010,-0.519031
44.852000,-0.361600,0.072400,0.01,0.01,0.013235,0.002941,0.04,-0.07,-0.086505,-0.346021
44.885000,-0.361200,0.072300,0.01,0.01,0.008824,0.000000,0.02,0.01,-0.173010,0.173010
44.918000,-0.361000,0.072400,0.01,0.01,0.008824,0.014706,0.01,-0.02,0.173010,0.692042
44.952000,-0.360600,0.073300,0.01,0.01,0.017647,0.022059,-0.03,-0.30,0.346021,-0.259516
44.985000,-0.359800,0.073900,0.01,-0.00,0.016176,0.005882,-0.12,-0.79,-0.432526,-0.692042
45.018000,-0.359500,0.073700,0.00,-0.04,0.002941,-0.029412,-0.19,-1.21,-0.346021,-1.384083
45.052000,-0.359600,0.071900,-0.00,-0.09,-0.005882,-0.089706,-0.16,-1.20,-0.173010,-2.162630
45.085000,-0.359900,0.067600,-0.01,-0.14,-0.008824,-0.151471,-0.06,-0.61,-0.000000,-1.470588
45.118000,-0.360200,0.061600,-0.01,-0.14,-0.008824,-0.166176,0.02,0.33,0.000000,0.605536
45.152000,-0.360500,0.056300,-0.00,-0.11,-0.002941,-0.119118,0.03,1.17,0.346021,2.162630
45.185000,-0.360400,0.053500,-0.00,-0.05,0.000000,-0.045588,0.04,1.52,-0.173010,2.162630
45.219000,-0.360500,0.053200,-0.00,0.01,-0.007353,0.014706,0.11,1.28,-0.259516,1.384083
45.252000,-0.360900,0.054500,0.00,0.04,-0.005882,0.051471,0.20,0.68,0.346021,0.778547
45.285000,-0.360900,0.056700,0.01,0.05,0.011765,0.060294,0.23,0.02,0.692042,-0.259516
45.318000,-0.360100,0.058600,0.02,0.04,0.026471,0.042647,0.15,-0.48,0.173010,-0.778547
45.352000,-0.359100,0.059600,0.02,0.01,0.023529,0.013235,-0.01,-0.70,-0.346021,-0.951557
45.385000,-0.358500,0.059500,0.02,-0.02,0.016176,-0.017647,-0.16,-0.62,-0.086505,-0.865052
45.418000,-0.358000,0.058400,0.01,-0.03,0.013235,-0.042647,-0.22,-0.26,-0.086505,-0.605536
45.452000,-0.357600,0.056600,0.00,-0.04,0.002941,-0.047059,-0.19,0.21,-0.519031,0.346021
45.485000,-0.357800,0.055200,-0.01,-0.02,-0.010294,-0.023529,-0.06,0.58,-0.259516,1.038062
45.519000,-0.358300,0.055000,-0.00,0.01,-0.010294,0.013235,0.15,0.66,0.259516,1.124567
45.552000,-0.358500,0.056100,0.01,0.04,0.002941,0.042647,0.29,0.37,0.519031,0.605536
45.585000,-0.358100,0.057900,0.02,0.04,0.022059,0.051471,0.26,-0.14,0.605536,-0.086505
45.619000,-0.357000,0.059600,0.03,0.02,0.035294,0.032353,0.07,-0.59,0.173010,-1.038062
45.652000,-0.355700,0.060100,0.03,-0.01,0.029412,-0.008824,-0.14,-0.74,-0.519031,-1.384083
45.685000,-0.355000,0.059000,0.02,-0.03,0.011765,-0.044118,-0.24,-0.56,-0.519031,-0.692042
45.719000,-0.354900,0.057100,0.00,-0.05,0.001471,-0.052941,-0.18,-0.22,-0.086505,0.173010
45.752000,-0.354900,0.055400,0.00,-0.05,0.000000,-0.047059,-0.02,0.10,0.000000,0.173010
45.785000,-0.354900,0.053900,0.00,-0.04,0.002941,-0.039706,0.09,0.31,0.173010,0.259516
45.819000,-0.354700,0.052700,0.01,-0.02,0.010294,-0.026471,0.10,0.37,0.259516,0.519031
45.852000,-0.354200,0.052100,0.01,-0.01,0.017647,-0.007353,0.04,0.30,0.173010,0.605536
45.885000,-0.353500,0.052200,0.01,-0.00,0.013235,0.005882,-0.00,0.10,-0.432526,0.173010
45.919000,-0.353300,0.052500,0.01,-0.00,0.005882,0.002941,0.02,-0.14,-0.000000,-0.346021
45.952000,-0.353100,0.052400,0.01,-0.01,0.010294,-0.011765,0.08,-0.27,0.259516,-0.519031
45.985000,-0.352600,0.051700,0.02,-0.03,0.019118,-0.027941,0.09,-0.20,0.259516,-0.432526
46.019000,-0.351800,0.050500,0.02,-0.03,0.023529,-0.036765,0.04,0.03,0.000000,-0.086505
46.052000,-0.351000,0.049200,0.02,-0.02,0.020588,-0.029412,-0.03,0.26,-0.173010,0.519031
46.085000,-0.350400,0.048500,0.02,-0.01,0.014706,-0.007353,-0.06,0.38,-0.173010,0.778547
46.119000,-0.350000,0.048700,0.02,0.00,0.013235,0.008824,-0.07,0.38,0.086505,0.173010
46.152000,-0.349500,0.049100,0.01,0.02,0.016176,0.014706,-0.08,0.33,0.086505,0.173010
46.186000,-0.348900,0.049700,0.01,0.03,0.010294,0.023529,-0.04,0.19,-0.432526,0.346021
46.219000,-0.348800,0.050700,0.01,0.03,0.001471,0.038235,0.07,-0.11,-0.086505,0.519031
46.252000,-0.348800,0.052300,0.01,0.03,0.007353,0.038235,0.21,-0.59,0.432526,-0.519031
46.286000,-0.348300,0.053300,0.02,-0.00,0.026471,0.004412,0.24,-1.13,0.692042,-1.470588
46.319000,-0.347000,0.052600,0.03,-0.05,0.041176,-0.051471,0.18,-1.54,0.173010,-1.816609
46.352000,-0.345500,0.049800,0.04,-0.11,0.036765,-0.111765,0.10,-1.76,-0.432526,-1.730104
46.386000,-0.344500,0.045000,0.04,-0.17,0.029412,-0.169118,0.09,-1.90,0.000000,-1.643599
46.419000,-0.343500,0.038300,0.04,-0.24,0.038235,-0.229412,0.12,-2.09,0.519031,-1.903114
46.452000,-0.341900,0.029400,0.05,-0.31,0.051471,-0.298529,0.13,-2.33,0.259516,-2.162630
46.486000,-0.340000,0.018000,0.05,-0.39,0.051471,-0.380882,0.08,-2.50,-0.259516,-2.681661
46.519000,-0.338400,0.003500,0.05,-0.48,0.047059,-0.476471,0.03,-2.46,0.000000,-2.941176
46.552000,-0.336800,-0.014400,0.05,-0.56,0.050000,-0.563235,0.06,-2.14,0.173010,-2.162630
46.586000,-0.335000,-0.034800,0.05,-0.63,0.052941,-0.626471,0.18,-1.50,0.000000,-1.557093
46.619000,-0.333200,-0.057000,0.06,-0.67,0.055882,-0.673529,0.32,-0.65,0.173010,-1.211073
46.652000,-0.331200,-0.080600,0.08,-0.67,0.072059,-0.680882,0.36,0.14,0.778547,0.778547
46.686000,-0.328300,-0.103300,0.09,-0.65,0.097059,-0.639706,0.22,0.67,0.692042,1.643599
46.719000,-0.324600,-0.124100,0.10,-0.62,0.105882,-0.601471,-0.09,0.86,-0.173010,0.605536
46.752000,-0.321100,-0.144200,0.09,-0.59,0.088235,-0.582353,-0.38,0.74,-0.865052,0.519031
46.786000,-0.318600,-0.163700,0.06,-0.57,0.060294,-0.554412,-0.47,0.42,-0.778547,1.124567
46.819000,-0.317000,-0.181900,0.05,-0.56,0.041176,-0.535294,-0.32,0.06,-0.346021,-0.000000
46.853000,-0.315800,-0.200100,0.04,-0.57,0.035294,-0.551471,-0.10,-0.21,-0.000000,-0.951557
46.886000,-0.314600,-0.219400,0.04,-0.58,0.042647,-0.575000,0.02,-0.28,0.432526,-0.432526
46.919000,-0.312900,-0.239200,0.05,-0.59,0.051471,-0.583824,0.02,-0.10,0.086505,-0.086505
46.953000,-0.311100,-0.259100,0.05,-0.59,0.047059,-0.582353,0.04,0.17,-0.346021,0.173010
46.986000,-0.309700,-0.278800,0.05,-0.58,0.038235,-0.569118,0.15,0.35,-0.173010,0.605536
47.019000,-0.308500,-0.297800,0.05,-0.56,0.045588,-0.548529,0.26,0.39,0.605536,0.605536
47.052000,-0.306600,-0.316100,0.07,-0.55,0.070588,-0.533824,0.23,0.30,0.865052,0.259516
47.086000,-0.303700,-0.334100,0.08,-0.54,0.085294,-0.526471,-0.00,0.12,0.000000,0.173010
47.119000,-0.300800,-0.351900,0.07,-0.54,0.073529,-0.527941,-0.29,-0.02,-0.692042,-0.259516
47.153000,-0.298700,-0.370000,0.05,-0.55,0.047059,-0.535294,-0.48,0.00,-0.865052,-0.173010
47.186000,-0.297600,-0.388300,0.03,-0.55,0.029412,-0.542647,-0.52,0.23,-0.173010,-0.259516
47.219000,-0.296700,-0.406900,0.02,-0.53,0.019118,-0.533824,-0.42,0.51,-0.432526,0.778547
47.253000,-0.296300,-0.424600,0.00,-0.51,-0.001471,-0.497059,-0.20,0.62,-0.778547,1.384083
47.286000,-0.296800,-0.440700,-0.00,-0.48,-0.011765,-0.461765,0.05,0.49,0.173010,0.692042
47.319000,-0.297100,-0.456000,0.01,-0.47,0.007353,-0.457353,0.25,0.33,0.951557,-0.432526
47.353000,-0.296300,-0.471800,0.02,-0.47,0.027941,-0.467647,0.33,0.42,0.259516,-0.173010
47.386000,-0.295200,-0.487800,0.03,-0.46,0.029412,-0.458824,0.29,0.89,-0.173010,0.692042
47.419000,-0.294300,-0.503000,0.04,-0.42,0.035294,-0.419118,0.18,1.62,0.519031,1.643599
47.453000,-0.292800,-0.516300,0.05,-0.35,0.051471,-0.350000,-0.02,2.38,0.432526,2.422145
47.486000,-0.290800,-0.526800,0.04,-0.25,0.052941,-0.255882,-0.27,2.94,-0.346021,3.114187
47.520000,-0.289200,-0.533700,0.03,-0.14,0.027941,-0.142647,-0.42,3.19,-1.124567,3.546713
47.553000,-0.288900,-0.536500,0.01,-0.03,-0.004412,-0.025000,-0.33,3.13,-0.778547,3.373702
47.586000,-0.289500,-0.535400,-0.00,0.07,-0.010294,0.076471,-0.11,2.88,0.432526,2.595156
47.619000,-0.289600,-0.531300,0.00,0.16,0.007353,0.155882,0.01,2.68,0.605536,2.076125
47.653000,-0.289000,-0.524800,0.01,0.24,0.014706,0.232353,-0.11,2.64,-0.173010,2.422145
47.686000,-0.288600,-0.515500,0.00,0.33,0.004412,0.320588,-0.39,2.72,-0.432526,2.768166
47.719000,-0.288700,-0.503000,-0.02,0.42,-0.016176,0.417647,-0.61,2.76,-0.778547,2.941176
47.753000,-0.289700,-0.487100,-0.05,0.52,-0.045588,0.513235,-0.56,2.56,-0.951557,2.681661
47.786000,-0.291800,-0.468100,-0.07,0.60,-0.075000,0.601471,-0.20,2.06,-0.778547,2.508651
47.820000,-0.294800,-0.446200,-0.06,0.66,-0.077941,0.666176,0.28,1.41,0.605536,1.297578
47.853000,-0.297100,-0.422800,-0.04,0.70,-0.042647,0.689706,0.59,0.86,1.470588,0.086505
47.886000,-0.297700,-0.399300,-0.01,0.71,-0.002941,0.694118,0.55,0.54,0.865052,0.173010
47.920000,-0.297300,-0.375600,0.00,0.73,0.010294,0.708824,0.22,0.48,-0.086505,0.692042
47.953000,-0.297000,-0.351100,-0.00,0.74,0.002941,0.729412,-0.11,0.59,-0.346021,0.519031
47.986000,-0.297100,-0.326000,-0.01,0.76,-0.013235,0.744118,-0.23,0.74,-0.605536,0.346021
48.020000,-0.297900,-0.300500,-0.02,0.79,-0.025000,0.770588,-0.15,0.84,-0.086505,1.211073
48.053000,-0.298800,-0.273600,-0.02,0.82,-0.023529,0.811765,-0.00,0.91,0.173010,1.211073
48.086000,-0.299500,-0.245300,-0.02,0.85,-0.017647,0.839706,0.08,1.07,0.173010,0.432526
48.120000,-0.300000,-0.216500,-0.01,0.89,-0.013235,0.857353,0.03,1.49,0.086505,0.605536
48.153000,-0.300400,-0.187000,-0.01,0.94,-0.010294,0.901471,-0.10,2.09,0.086505,1.989619
48.186000,-0.300700,-0.155200,-0.02,1.03,-0.016176,1.000000,-0.21,2.33,-0.432526,3.806228
48.220000,-0.301500,-0.119000,-0.03,1.12,-0.033824,1.125000,-0.20,1.51,-0.605536,3.546713
48.253000,-0.303000,-0.078700,-0.04,1.17,-0.044118,1.192647,-0.10,-0.50,0.000000,0.432526
48.286000,-0.304500,-0.037900,-0.04,1.11,-0.036765,1.135294,0.03,-3.06,0.432526,-3.806228
48.320000,-0.305500,-0.001500,-0.03,0.95,-0.029412,0.951471,0.10,-5.15,0.000000,-7.006920
48.353000,-0.306500,0.026800,-0.03,0.73,-0.029412,0.710294,0.11,-6.14,0.000000,-7.179931
48.386000,-0.307500,0.046800,-0.03,0.51,-0.026471,0.486765,0.08,-6.04,0.173010,-5.968858
48.420000,-0.308300,0.059900,-0.02,0.32,-0.020588,0.300000,0.00,-5.29,0.173010,-5.017301
48.453000,-0.308900,0.067200,-0.02,0.16,-0.020588,0.142647,-0.07,-4.24,-0.173010,-4.238754
48.486000,-0.309700,0.069600,-0.03,0.03,-0.029412,0.013235,-0.07,-3.03,-0.346021,-3.373702
48.520000,-0.310900,0.068100,-0.03,-0.05,-0.036765,-0.070588,0.01,-1.71,-0.086505,-1.557093
48.553000,-0.312200,0.064800,-0.03,-0.08,-0.030882,-0.098529,0.10,-0.45,0.432526,-0.086505
48.587000,-0.313000,0.061400,-0.02,-0.07,-0.017647,-0.080882,0.12,0.47,0.346021,1.124567
48.620000,-0.313400,0.059300,-0.02,-0.04,-0.016176,-0.035294,0.08,0.86,-0.259516,1.557093
48.653000,-0.314100,0.059000,-0.02,-0.00,-0.022059,0.007353,0.03,0.84,-0.086505,0.951557
48.687000,-0.314900,0.059800,-0.02,0.02,-0.019118,0.025000,0.01,0.64,0.259516,0.086505
48.720000,-0.315400,0.060700,-0.02,0.04,-0.014706,0.032353,0.01,0.36,0.000000,0.346021
48.753000,-0.315900,0.062000,-0.02,0.05,-0.016176,0.051471,-0.01,0.02,-0.086505,0.778547
48.787000,-0.316500,0.064200,-0.02,0.04,-0.017647,0.057353,-0.02,-0.33,0.000000,-0.432526
48.820000,-0.317100,0.065900,-0.02,0.02,-0.019118,0.025000,-0.01,-0.51,-0.086505,-1.470588
48.853000,-0.317800,0.065900,-0.02,-0.00,-0.020588,-0.014706,-0.00,-0.38,0.000000,-0.865052
48.887000,-0.318500,0.064900,-0.02,-0.01,-0.016176,-0.020588,-0.04,-0.08,0.259516,0.519031
48.920000,-0.318900,0.064500,-0.02,-0.00,-0.014706,0.002941,-0.08,0.11,-0.173010,0.865052
48.953000,-0.319500,0.065100,-0.02,0.01,-0.025000,0.017647,-0.08,0.06,-0.432526,0.000000
48.987000,-0.320600,0.065700,-0.03,0.00,-0.032353,0.005882,-0.02,-0.07,-0.000000,-0.692042
49.020000,-0.321700,0.065500,-0.03,-0.00,-0.026471,-0.010294,0.09,-0.05,0.346021,-0.259516
49.053000,-0.322400,0.065000,-0.02,-0.00,-0.020588,-0.010294,0.17,0.18,0.000000,0.259516
49.087000,-0.323100,0.064800,-0.01,0.01,-0.014706,0.002941,0.16,0.45,0.346021,0.519031
49.120000,-0.323400,0.065200,-0.01,0.03,-0.002941,0.027941,0.10,0.57,0.346021,0.951557
49.153000,-0.323300,0.066700,-0.01,0.05,-0.004412,0.055882,0.09,0.50,-0.432526,0.692042
49.187000,-0.323700,0.069000,-0.01,0.07,-0.013235,0.070588,0.13,0.33,-0.086505,0.173010
49.220000,-0.324200,0.071500,0.00,0.07,-0.001471,0.070588,0.15,0.18,0.778547,-0.173010
49.254000,-0.323800,0.073800,0.01,0.08,0.017647,0.070588,0.05,0.06,0.346021,0.173010
49.287000,-0.323000,0.076300,0.01,0.08,0.014706,0.077941,-0.11,-0.08,-0.519031,0.259516
49.320000,-0.322800,0.079100,-0.00,0.07,-0.004412,0.079412,-0.22,-0.27,-0.605536,-0.173010
49.353000,-0.323300,0.081700,-0.01,0.06,-0.016176,0.061765,-0.16,-0.45,-0.086505,-0.865052
49.387000,-0.323900,0.083300,-0.01,0.04,-0.016176,0.033824,-0.04,-0.55,0.086505,-0.778547
49.420000,-0.324400,0.084000,-0.01,0.02,-0.008824,0.016176,0.01,-0.59,0.346021,-0.259516
49.453000,-0.324500,0.084400,-0.01,0.00,-0.005882,0.007353,-0.05,-0.69,-0.173010,-0.259516
49.487000,-0.324800,0.084500,-0.01,-0.02,-0.011765,-0.014706,-0.16,-0.86,-0.173010,-1.038062
49.520000,-0.325300,0.083400,-0.02,-0.06,-0.020588,-0.054412,-0.26,-0.95,-0.346021,-1.297578
49.554000,-0.326200,0.080800,-0.03,-0.09,-0.030882,-0.097059,-0.28,-0.80,-0.259516,-1.211073
49.587000,-0.327400,0.076800,-0.04,-0.12,-0.042647,-0.125000,-0.20,-0.34,-0.432526,-0.432526
49.620000,-0.329100,0.072300,-0.05,-0.12,-0.051471,-0.127941,-0.04,0.26,-0.086505,0.259516
49.654000,-0.330900,0.068100,-0.05,-0.10,-0.048529,-0.104412,0.13,0.79,0.259516,1.124567
49.687000,-0.332400,0.065200,-0.04,-0.06,-0.036765,-0.060294,0.25,1.10,0.432526,1.470588
49.720000,-0.333400,0.064000,-0.03,-0.02,-0.023529,-0.016176,0.27,1.15,0.346021,1.124567
49.754000,-0.334000,0.064100,-0.02,0.02,-0.014706,0.022059,0.21,0.93,0.173010,1.124567
49.787000,-0.334400,0.065500,-0.01,0.05,-0.010294,0.055882,0.13,0.50,0.086505,0.865052
49.820000,-0.334700,0.067900,-0.01,0.06,-0.008824,0.067647,0.07,-0.04,0.000000,-0.173010
49.854000,-0.335000,0.070100,-0.01,0.05,-0.008824,0.051471,0.05,-0.53,0.000000,-0.778547
49.887000,-0.335300,0.071400,-0.01,0.02,-0.007353,0.017647,0.03,-0.80,0.086505,-1.211073
49.920000,-0.335500,0.071300,-0.01,-0.02,-0.004412,-0.020588,0.01,-0.72,0.086505,-1.038062
49.954000,-0.335600,0.070000,-0.01,-0.04,-0.002941,-0.048529,-0.03,-0.34,0.000000,-0.605536
49.987000,-0.335700,0.068000,-0.01,-0.04,-0.005882,-0.051471,-0.06,0.15,-0.173010,0.432526
50.021000,-0.336000,0.066500,-0.01,-0.03,-0.011765,-0.027941,-0.03,0.50,-0.173010,0.951557
50.054000,-0.336500,0.066100,-0.01,-0.00,-0.013235,0.002941,0.04,0.57,0.086505,0.865052
50.087000,-0.336900,0.066700,-0.01,0.02,-0.008824,0.025000,0.12,0.37,0.173010,0.432526
50.120000,-0.337100,0.067800,-0.00,0.03,-0.001471,0.030882,0.15,0.02,0.259516,-0.086505
50.154000,-0.337000,0.068800,0.00,0.02,0.005882,0.023529,0.09,-0.33,0.173010,-0.346021
50.187000,-0.336700,0.069400,0.01,0.00,0.008824,0.005882,0.01,-0.56,-0.000000,-0.692042
50.221000,-0.336400,0.069200,0.00,-0.02,0.004412,-0.020588,-0.05,-0.60,-0.259516,-0.865052
50.254000,-0.336400,0.068000,0.00,-0.04,-0.001471,-0.048529,-0.05,-0.36,-0.086505,-0.778547
50.287000,-0.336500,0.065900,-0.00,-0.05,-0.001471,-0.063235,0.01,0.14,0.086505,-0.086505
50.321000,-0.336500,0.063700,0.00,-0.04,0.001471,-0.048529,0.07,0.68,0.086505,0.951557
50.354000,-0.336400,0.062600,0.01,-0.00,0.002941,-0.002941,0.11,0.94,0.000000,1.730104
50.387000,-0.336300,0.063500,0.01,0.04,0.008824,0.048529,0.10,0.73,0.346021,1.297578
50.421000,-0.335800,0.065900,0.01,0.06,0.016176,0.073529,0.10,0.08,0.086505,0.173010
50.454000,-0.335200,0.068500,0.01,0.05,0.013235,0.060294,0.15,-0.74,-0.259516,-0.951557
50.487000,-0.334900,0.070000,0.02,0.01,0.014706,0.013235,0.19,-1.43,0.346021,-1.816609
50.521000,-0.334200,0.069400,0.03,-0.05,0.030882,-0.052941,0.12,-1.87,0.605536,-2.076125
50.554000,-0.332800,0.066400,0.03,-0.12,0.042647,-0.120588,-0.08,-2.16,0.086505,-1.903114
50.587000,-0.331300,0.061200,0.03,-0.20,0.030882,-0.188235,-0.31,-2.48,-0.778547,-2.076125
50.621000,-0.330700,0.053600,0.01,-0.28,0.004412,-0.269118,-0.41,-2.87,-0.778547,-2.681661
50.654000,-0.331000,0.042900,-0.01,-0.39,-0.013235,-0.373529,-0.31,-3.21,-0.259516,-3.460208
50.687000,-0.331600,0.028200,-0.01,-0.51,-0.016176,-0.497059,-0.08,-3.28,0.086505,-3.806228
50.721000,-0.332100,0.009100,-0.01,-0.62,-0.013235,-0.616176,0.15,-2.92,0.086505,-3.200692
50.754000,-0.332500,-0.013700,-0.00,-0.71,-0.005882,-0.710294,0.26,-2.18,0.346021,-2.335640
50.787000,-0.332500,-0.039200,0.01,-0.77,0.011765,-0.767647,0.23,-1.31,0.692042,-1.038062
50.821000,-0.331700,-0.065900,0.02,-0.79,0.022059,-0.785294,0.11,-0.55,-0.086505,0.000000
50.854000,-0.331000,-0.092600,0.02,-0.80,0.016176,-0.782353,-0.00,0.05,-0.259516,0.173010
50.888000,-0.330600,-0.119100,0.01,-0.79,0.010294,-0.777941,-0.05,0.48,-0.086505,0.086505
50.921000,-0.330300,-0.145500,0.01,-0.76,0.010294,-0.758824,-0.01,0.64,0.086505,1.038062
50.954000,-0.329900,-0.170700,0.01,-0.74,0.011765,-0.713235,0.05,0.45,0.000000,1.643599
50.988000,-0.329500,-0.194000,0.02,-0.72,0.014706,-0.686765,0.08,-0.02,0.173010,-0.086505
51.021000,-0.328900,-0.217400,0.02,-0.74,0.019118,-0.714706,0.08,-0.40,0.086505,-1.557093
51.054000,-0.328200,-0.242600,0.02,-0.76,0.020588,-0.761765,0.07,-0.35,-0.000000,-1.211073
51.088000,-0.327500,-0.269200,0.02,-0.77,0.020588,-0.776471,0.05,0.14,0.000000,0.346021
51.121000,-0.326800,-0.295400,0.02,-0.75,0.025000,-0.747059,-0.01,0.65,0.259516,1.384083
51.154000,-0.325800,-0.320000,0.02,-0.72,0.027941,-0.698529,-0.09,0.82,-0.086505,1.470588
51.188000,-0.324900,-0.342900,0.02,-0.69,0.019118,-0.664706,-0.08,0.67,-0.432526,0.519031
51.221000,-0.324500,-0.365200,0.01,-0.68,0.005882,-0.660294,0.05,0.52,-0.346021,-0.259516
51.254000,-0.324500,-0.387800,0.02,-0.66,0.011765,-0.660294,0.18,0.60,0.692042,0.259516
51.288000,-0.323700,-0.410100,0.03,-0.64,0.035294,-0.638235,0.19,0.89,0.692042,1.038062
51.321000,-0.322100,-0.431200,0.04,-0.60,0.045588,-0.594118,0.04,1.14,-0.086505,1.557093
51.354000,-0.320600,-0.450500,0.03,-0.56,0.033824,-0.542647,-0.08,1.15,-0.605536,1.470588
51.388000,-0.319800,-0.468100,0.02,-0.52,0.019118,-0.501471,-0.01,1.00,-0.259516,0.951557
51.421000,-0.319300,-0.484600,0.03,-0.50,0.019118,-0.482353,0.23,1.02,0.259516,0.173010
51.454000,-0.318500,-0.500900,0.04,-0.47,0.038235,-0.472059,0.36,1.42,0.865052,0.432526
51.488000,-0.316700,-0.516700,0.06,-0.41,0.067647,-0.422059,0.20,2.07,0.865052,2.508651
51.521000,-0.313900,-0.529600,0.06,-0.32,0.075000,-0.319118,-0.13,2.69,-0.432526,3.546713
51.555000,-0.311600,-0.538400,0.05,-0.22,0.048529,-0.213235,-0.40,3.11,-1.124567,2.681661
51.588000,-0.310600,-0.544100,0.03,-0.11,0.020588,-0.117647,-0.46,3.35,-0.519031,2.941176
51.621000,-0.310200,-0.546400,0.01,0.00,0.011765,-0.004412,-0.31,3.54,-0.000000,3.719723
51.654000,-0.309800,-0.544400,0.01,0.12,0.007353,0.120588,-0.10,3.72,-0.259516,3.633218
51.688000,-0.309700,-0.538200,0.01,0.25,0.002941,0.245588,0.04,3.75,-0.000000,3.719723
51.721000,-0.309600,-0.527700,0.01,0.38,0.011765,0.375000,-0.00,3.49,0.519031,3.892734
51.754000,-0.308900,-0.512700,0.01,0.49,0.023529,0.495588,-0.19,2.96,0.173010,3.200692
51.788000,-0.308000,-0.494000,0.00,0.58,0.010294,0.583824,-0.38,2.31,-0.951557,1.989619
51.821000,-0.308200,-0.473000,-0.02,0.64,-0.023529,0.635294,-0.38,1.76,-1.038062,1.038062
51.855000,-0.309600,-0.450800,-0.03,0.69,-0.042647,0.673529,-0.11,1.44,-0.086505,1.211073
51.888000,-0.311100,-0.427200,-0.03,0.74,-0.033824,0.720588,0.21,1.20,0.605536,1.557093
51.921000,-0.311900,-0.401800,-0.01,0.78,-0.007353,0.770588,0.32,0.82,0.951557,1.384083
51.955000,-0.311600,-0.374800,0.00,0.80,0.011765,0.797059,0.17,0.34,0.173010,0.173010
51.988000,-0.311100,-0.347600,0.00,0.79,0.007353,0.782353,-0.07,0.01,-0.432526,-1.038062
52.021000,-0.311100,-0.321600,-0.01,0.79,-0.008824,0.760294,-0.21,-0.01,-0.519031,-0.259516
52.055000,-0.311700,-0.295900,-0.02,0.79,-0.019118,0.764706,-0.21,0.16,-0.086505,0.519031
52.088000,-0.312400,-0.269600,-0.02,0.80,-0.020588,0.789706,-0.16,0.25,0.000000,0.951557
52.121000,-0.313100,-0.242200,-0.02,0.81,-0.022059,0.807353,-0.19,0.26,-0.086505,0.086505
52.155000,-0.313900,-0.214700,-0.03,0.81,-0.027941,0.795588,-0.30,0.48,-0.259516,-0.778547
52.188000,-0.315000,-0.188100,-0.04,0.83,-0.039706,0.789706,-0.40,1.07,-0.432526,0.432526
52.221000,-0.316600,-0.161000,-0.06,0.88,-0.060294,0.844118,-0.36,1.74,-0.778547,2.768166
52.255000,-0.319100,-0.130700,-0.07,0.96,-0.077941,0.945588,-0.14,1.88,-0.259516,3.200692
52.288000,-0.321900,-0.096700,-0.07,1.03,-0.080882,1.035294,0.18,1.04,0.086505,2.076125
52.321000,-0.324600,-0.060300,-0.06,1.05,-0.063235,1.066176,0.40,-0.70,0.951557,-0.259516
52.355000,-0.326200,-0.024200,-0.04,0.99,-0.032353,1.008824,0.41,-2.74,0.865052,-3.114187
52.388000,-0.326800,0.008300,-0.03,0.86,-0.017647,0.863235,0.23,-4.38,-0.000000,-5.449827
52.421000,-0.327400,0.034500,-0.03,0.68,-0.023529,0.663235,0.05,-5.14,-0.346021,-6.314879
52.455000,-0.328400,0.053400,-0.03,0.49,-0.032353,0.466176,0.01,-5.07,-0.173010,-5.276817
52.488000,-0.329600,0.066200,-0.03,0.33,-0.032353,0.313235,0.12,-4.56,0.173010,-3.719723
52.522000,-0.330600,0.074700,-0.02,0.19,-0.022059,0.188235,0.26,-3.92,0.432526,-3.633218
52.555000,-0.331100,0.079000,-0.01,0.07,-0.007353,0.061765,0.29,-3.15,0.432526,-3.806228
52.588000,-0.331100,0.078900,0.00,-0.03,0.004412,-0.050000,0.18,-2.12,0.259516,-2.768166
52.622000,-0.330800,0.075600,0.01,-0.08,0.010294,-0.104412,-0.02,-0.89,0.086505,-0.432526
52.655000,-0.330400,0.071800,-0.00,-0.08,0.002941,-0.092647,-0.13,0.22,-0.519031,1.124567
52.688000,-0.330600,0.069300,-0.01,-0.05,-0.013235,-0.052941,-0.04,0.88,-0.432526,1.211073
52.722000,-0.331300,0.068200,-0.01,-0.01,-0.016176,-0.010294,0.15,0.96,0.259516,1.297578
52.755000,-0.331700,0.068600,0.00,0.02,0.002941,0.029412,0.28,0.67,0.865052,1.038062
52.788000,-0.331100,0.070200,0.02,0.03,0.023529,0.044118,0.26,0.27,0.346021,-0.173010
52.822000,-0.330100,0.071600,0.02,0.03,0.026471,0.032353,0.14,-0.06,-0.173010,-0.519031
52.855000,-0.329300,0.072400,0.02,0.03,0.020588,0.026471,0.06,-0.25,-0.173010,0.173010
52.888000,-0.328700,0.073400,0.02,0.02,0.020588,0.022059,0.08,-0.26,0.173010,-0.432526
52.922000,-0.327900,0.073900,0.03,0.01,0.027941,0.001471,0.11,-0.08,0.259516,-0.778547
52.955000,-0.326800,0.073500,0.03,0.01,0.036765,-0.008824,0.07,0.19,0.259516,0.173010
52.988000,-0.325400,0.073300,0.03,0.02,0.036765,0.016176,-0.00,0.41,-0.259516,1.297578
53.022000,-0.324300,0.074600,0.03,0.04,0.030882,0.048529,-0.08,0.39,-0.086505,0.605536
53.055000,-0.323300,0.076600,0.03,0.05,0.027941,0.058824,-0.13,0.13,-0.086505,0.000000
53.088000,-0.322400,0.078600,0.02,0.05,0.025000,0.052941,-0.17,-0.15,-0.086505,-0.346021
53.122000,-0.321600,0.080200,0.02,0.04,0.019118,0.036765,-0.21,-0.26,-0.259516,-0.605536
53.155000,-0.321100,0.081100,0.01,0.03,0.010294,0.020588,-0.22,-0.21,-0.259516,-0.346021
53.189000,-0.320900,0.081600,0.00,0.02,0.000000,0.019118,-0.13,-0.10,-0.346021,0.259516
53.222000,-0.321100,0.082400,-0.00,0.02,-0.007353,0.025000,0.04,-0.04,-0.086505,0.086505
53.255000,-0.321400,0.083300,0.00,0.02,0.000000,0.022059,0.19,-0.05,0.519031,-0.259516
53.288000,-0.321100,0.083900,0.01,0.02,0.016176,0.017647,0.23,-0.12,0.432526,-0.000000
53.322000,-0.320300,0.084500,0.02,0.02,0.027941,0.017647,0.11,-0.25,0.259516,0.000000
53.355000,-0.319200,0.085100,0.02,0.01,0.027941,0.010294,-0.08,-0.42,-0.259516,-0.432526
53.388000,-0.318400,0.085200,0.02,-0.01,0.017647,-0.010294,-0.22,-0.63,-0.346021,-0.778547
53.422000,-0.318000,0.084400,0.01,-0.04,0.004412,-0.033824,-0.26,-0.83,-0.432526,-0.605536
53.455000,-0.318100,0.082900,-0.00,-0.07,-0.005882,-0.063235,-0.21,-0.90,-0.173010,-1.124567
53.489000,-0.318400,0.080100,-0.01,-0.10,-0.008824,-0.104412,-0.16,-0.73,0.000000,-1.297578
53.522000,-0.318700,0.075800,-0.01,-0.13,-0.008824,-0.135294,-0.16,-0.30,-0.000000,-0.519031
53.555000,-0.319000,0.070900,-0.02,-0.13,-0.016176,-0.136765,-0.16,0.32,-0.432526,0.432526
53.589000,-0.319800,0.066500,-0.02,-0.10,-0.027941,-0.108824,-0.09,0.90,-0.259516,1.211073
53.622000,-0.320900,0.063500,-0.03,-0.06,-0.030882,-0.061765,0.03,1.23,0.086505,1.557093
53.655000,-0.321900,0.062300,-0.02,-0.01,-0.022059,-0.008824,0.15,1.19,0.432526,1.557093
53.688000,-0.322400,0.062900,-0.01,0.03,-0.013235,0.035294,0.21,0.74,0.086505,1.038062
53.722000,-0.322800,0.064700,-0.01,0.04,-0.008824,0.058824,0.20,0.02,0.173010,0.346021
53.755000,-0.323000,0.066900,-0.00,0.03,0.000000,0.042647,0.16,-0.67,0.346021,-1.297578
53.789000,-0.322800,0.067600,0.00,-0.01,0.005882,-0.010294,0.06,-0.99,0.000000,-1.816609
53.822000,-0.322600,0.066200,0.01,-0.05,0.007353,-0.061765,-0.10,-0.80,0.086505,-1.211073
53.855000,-0.322300,0.063400,-0.00,-0.07,0.002941,-0.083824,-0.24,-0.26,-0.346021,-0.086505
53.889000,-0.322400,0.060500,-0.01,-0.07,-0.013235,-0.072059,-0.25,0.31,-0.605536,0.778547
53.922000,-0.323200,0.058500,-0.02,-0.04,-0.029412,-0.044118,-0.11,0.66,-0.346021,0.865052
53.955000,-0.324400,0.057500,-0.02,-0.02,-0.029412,-0.014706,0.06,0.69,0.346021,0.865052
53.989000,-0.325200,0.057500,-0.02,0.01,-0.011765,0.011765,0.10,0.49,0.692042,0.692042
54.022000,-0.325200,0.058300,-0.01,0.02,-0.001471,0.025000,0.00,0.19,-0.086505,0.086505
54.055000,-0.325300,0.059200,-0.01,0.02,-0.013235,0.020588,-0.12,-0.05,-0.605536,-0.346021
54.089000,-0.326100,0.059700,-0.02,0.01,-0.027941,0.010294,-0.14,-0.15,-0.259516,-0.259516
54.122000,-0.327200,0.059900,-0.03,0.00,-0.029412,0.002941,-0.05,-0.14,0.173010,-0.173010
54.155000,-0.328100,0.059900,-0.03,0.00,-0.025000,0.001471,0.03,-0.12,0.086505,0.086505
54.189000,-0.328900,0.060000,-0.02,-0.00,-0.022059,0.001471,0.07,-0.12,0.086505,-0.086505
54.222000,-0.329600,0.060000,-0.02,-0.01,-0.020588,-0.005882,0.08,-0.12,-0.000000,-0.346021
54.256000,-0.330300,0.059600,-0.02,-0.01,-0.019118,-0.013235,0.12,-0.12,0.086505,-0.086505
54.289000,-0.330900,0.059100,-0.01,-0.01,-0.016176,-0.013235,0.21,-0.19,0.086505,0.086505
54.322000,-0.331400,0.058700,-0.00,-0.02,-0.007353,-0.011765,0.26,-0.50,0.432526,-0.000000
54.356000,-0.331400,0.058300,0.01,-0.04,0.008824,-0.025000,0.19,-1.13,0.519031,-0.778547
54.389000,-0.330800,0.057000,0.01,-0.09,0.019118,-0.069118,0.00,-1.97,0.086505,-1.816609
54.422000,-0.330100,0.053600,0.01,-0.17,0.011765,-0.154412,-0.18,-2.76,-0.519031,-3.200692
54.455000,-0.330000,0.046500,-0.00,-0.28,-0.007353,-0.272059,-0.27,-3.30,-0.605536,-3.719723
54.489000,-0.330600,0.035100,-0.01,-0.40,-0.017647,-0.392647,-0.24,-3.54,0.000000,-3.373702
54.522000,-0.331200,0.019800,-0.02,-0.52,-0.017647,-0.508824,-0.12,-3.52,0.000000,-3.460208
54.556000,-0.331800,0.000500,-0.02,-0.64,-0.025000,-0.626471,0.06,-3.28,-0.432526,-3.460208
54.589000,-0.332900,-0.022800,-0.02,-0.74,-0.027941,-0.738235,0.27,-2.80,0.259516,-3.114187
54.622000,-0.333700,-0.049700,-0.00,-0.83,-0.007353,-0.826471,0.42,-2.02,0.951557,-2.076125
54.656000,-0.333400,-0.079000,0.01,-0.88,0.020588,-0.882353,0.43,-1.04,0.692042,-1.211073
54.689000,-0.332300,-0.109700,0.03,-0.90,0.032353,-0.898529,0.27,-0.18,-0.000000,0.259516
54.722000,-0.331200,-0.140100,0.03,-0.88,0.033824,-0.870588,0.03,0.25,0.086505,1.384083
54.756000,-0.330000,-0.168900,0.03,-0.87,0.030882,-0.835294,-0.15,0.22,-0.259516,0.692042
54.789000,-0.329100,-0.196900,0.02,-0.87,0.020588,-0.839706,-0.22,0.02,-0.346021,-0.951557
54.822000,-0.328600,-0.226000,0.01,-0.87,0.010294,-0.867647,-0.21,-0.02,-0.259516,-0.692042
54.856000,-0.328400,-0.255900,0.01,-0.88,0.004412,-0.869118,-0.16,0.21,-0.086505,0.605536
54.889000,-0.328300,-0.285100,0.00,-0.86,0.004412,-0.845588,-0.14,0.55,0.086505,0.778547
54.922000,-0.328100,-0.313400,-0.00,-0.83,0.000000,-0.819118,-0.12,0.73,-0.346021,0.778547
54.956000,-0.328300,-0.340800,-0.01,-0.81,-0.010294,-0.788235,-0.03,0.66,-0.259516,1.038062
54.989000,-0.328800,-0.367000,-0.01,-0.79,-0.013235,-0.763235,0.09,0.54,0.086505,0.432526
55.022000,-0.329200,-0.392700,0.00,-0.78,-0.001471,-0.761765,0.15,0.59,0.605536,-0.346021
55.056000,-0.328900,-0.418800,0.01,-0.76,0.014706,-0.757353,0.11,0.85,0.346021,0.605536
55.089000,-0.328200,-0.444200,0.01,-0.72,0.013235,-0.713235,0.04,1.18,-0.432526,1.989619
55.122000,-0.328000,-0.467300,0.01,-0.67,0.001471,-0.652941,0.04,1.45,-0.259516,1.557093
55.156000,-0.328100,-0.488600,0.01,-0.62,0.004412,-0.610294,0.15,1.68,0.432526,0.951557
55.189000,-0.327700,-0.508800,0.02,-0.56,0.016176,-0.564706,0.34,1.99,0.259516,1.730104
55.223000,-0.327000,-0.527000,0.03,-0.49,0.026471,-0.491176,0.49,2.43,0.346021,2.595156
55.256000,-0.325900,-0.542200,0.05,-0.40,0.048529,-0.398529,0.52,2.88,0.951557,2.854671
55.289000,-0.323700,-0.554100,0.07,-0.30,0.075000,-0.294118,0.38,3.20,0.605536,3.287197
55.323000,-0.320800,-0.562200,0.08,-0.19,0.085294,-0.182353,0.05,3.45,-0.000000,3.287197
55.356000,-0.317900,-0.566500,0.08,-0.07,0.080882,-0.072059,-0.41,3.75,-0.259516,3.200692
55.389000,-0.315300,-0.567100,0.05,0.06,0.061765,0.048529,-0.80,4.05,-0.865052,3.892734
55.423000,-0.313700,-0.563200,0.02,0.20,0.019118,0.197059,-0.94,4.15,-1.643599,4.844291
55.456000,-0.314000,-0.553700,-0.02,0.35,-0.027941,0.354412,-0.79,3.90,-1.124567,4.411765
55.489000,-0.315600,-0.539100,-0.04,0.47,-0.047059,0.480882,-0.46,3.32,0.000000,3.027682
55.523000,-0.317200,-0.521000,-0.05,0.57,-0.047059,0.567647,-0.08,2.62,0.000000,2.076125
55.556000,-0.318800,-0.500500,-0.04,0.64,-0.045588,0.633824,0.22,2.02,0.086505,1.816609
55.589000,-0.320300,-0.477900,-0.03,0.70,-0.035294,0.692647,0.41,1.51,0.519031,1.643599
55.623000,-0.321200,-0.453400,-0.01,0.75,-0.013235,0.741176,0.46,0.97,0.778547,1.211073
55.656000,-0.321200,-0.427500,0.00,0.77,0.010294,0.767647,0.35,0.43,0.605536,0.346021
55.689000,-0.320500,-0.401200,0.01,0.77,0.019118,0.761765,0.15,0.08,-0.086505,-0.692042
55.723000,-0.319900,-0.375700,0.01,0.76,0.013235,0.741176,-0.07,0.08,-0.259516,-0.519031
55.756000,-0.319600,-0.350800,0.01,0.77,0.005882,0.742647,-0.23,0.34,-0.173010,0.605536
55.789000,-0.319500,-0.325200,-0.00,0.79,-0.001471,0.770588,-0.28,0.63,-0.259516,1.038062
55.823000,-0.319700,-0.298400,-0.01,0.82,-0.014706,0.804412,-0.26,0.74,-0.519031,0.951557
55.856000,-0.320500,-0.270500,-0.02,0.84,-0.025000,0.829412,-0.24,0.73,-0.086505,0.519031
55.890000,-0.321400,-0.242000,-0.03,0.86,-0.026471,0.844118,-0.25,0.84,0.000000,0.346021
55.923000,-0.322300,-0.213100,-0.04,0.89,-0.032353,0.863235,-0.31,1.16,-0.346021,0.778547
55.956000,-0.323600,-0.183300,-0.05,0.94,-0.048529,0.907353,-0.36,1.59,-0.605536,1.816609
55.990000,-0.325600,-0.151400,-0.06,1.00,-0.064706,0.976471,-0.28,1.84,-0.346021,2.249135
56.023000,-0.328000,-0.116900,-0.07,1.07,-0.075000,1.052941,-0.05,1.51,-0.259516,2.249135
56.056000,-0.330700,-0.079800,-0.07,1.12,-0.075000,1.122059,0.22,0.33,0.259516,1.816609
56.090000,-0.333100,-0.040600,-0.05,1.11,-0.055882,1.135294,0.32,-1.58,0.865052,-1.038062
56.123000,-0.334500,-0.002600,-0.04,1.02,-0.030882,1.038235,0.19,-3.71,0.605536,-4.671280
56.156000,-0.335200,0.030000,-0.04,0.85,-0.026471,0.851471,-0.07,-5.42,-0.346021,-6.314879
56.190000,-0.336300,0.055300,-0.05,0.64,-0.045588,0.627941,-0.23,-6.22,-0.778547,-6.833910
56.223000,-0.338300,0.072700,-0.06,0.42,-0.066176,0.398529,-0.12,-6.07,-0.432526,-6.660900
56.256000,-0.340800,0.082400,-0.06,0.22,-0.070588,0.195588,0.18,-5.25,0.173010,-5.276817
56.290000,-0.343100,0.086000,-0.05,0.06,-0.048529,0.042647,0.37,-4.01,1.124567,-3.719723
56.323000,-0.344100,0.085300,-0.03,-0.05,-0.017647,-0.069118,0.28,-2.49,0.692042,-2.854671
56.356000,-0.344300,0.081300,-0.02,-0.11,-0.011765,-0.138235,0.01,-0.85,-0.346021,-1.211073
56.390000,-0.344900,0.075900,-0.03,-0.11,-0.029412,-0.132353,-0.20,0.59,-0.692042,1.557093
56.423000,-0.346300,0.072300,-0.04,-0.06,-0.048529,-0.060294,-0.20,1.44,-0.432526,2.681661
56.456000,-0.348200,0.071800,-0.05,0.01,-0.050000,0.023529,-0.03,1.45,0.346021,2.249135
56.490000,-0.349700,0.073900,-0.04,0.06,-0.042647,0.075000,0.18,0.76,0.086505,0.778547
56.523000,-0.351100,0.076900,-0.03,0.06,-0.036765,0.077941,0.29,-0.12,0.259516,-0.605536
56.557000,-0.352200,0.079200,-0.02,0.04,-0.022059,0.044118,0.27,-0.73,0.605536,-1.384083
56.590000,-0.352600,0.079900,-0.01,0.00,-0.005882,-0.001471,0.13,-0.92,0.346021,-1.297578
56.623000,-0.352600,0.079100,-0.01,-0.03,-0.005882,-0.032353,-0.02,-0.77,-0.346021,-0.519031
56.657000,-0.353000,0.077700,-0.02,-0.05,-0.019118,-0.050000,-0.06,-0.43,-0.432526,-0.519031
56.690000,-0.353900,0.075700,-0.02,-0.06,-0.026471,-0.064706,0.04,-0.01,0.000000,-0.346021
56.723000,-0.354800,0.073300,-0.02,-0.05,-0.017647,-0.060294,0.19,0.40,0.519031,0.605536
56.756000,-0.355100,0.071600,-0.00,-0.03,-0.001471,-0.030882,0.27,0.73,0.432526,1.124567
56.790000,-0.354900,0.071200,0.01,0.00,0.007353,0.002941,0.26,0.94,0.086505,0.865052
56.823000,-0.354600,0.071800,0.01,0.04,0.010294,0.033824,0.24,0.96,0.086505,0.951557
56.857000,-0.354200,0.073500,0.02,0.07,0.016176,0.069118,0.25,0.81,0.259516,1.124567
56.890000,-0.353500,0.076500,0.03,0.09,0.029412,0.100000,0.20,0.52,0.519031,0.692042
56.923000,-0.352200,0.080300,0.04,0.11,0.041176,0.110294,0.03,0.14,0.173010,-0.086505
56.957000,-0.350700,0.084000,0.03,0.10,0.039706,0.102941,-0.23,-0.21,-0.259516,-0.346021
56.990000,-0.349500,0.087300,0.02,0.09,0.023529,0.086765,-0.43,-0.49,-0.692042,-0.605536
57.023000,-0.349100,0.089900,-0.00,0.07,-0.002941,0.069118,-0.44,-0.78,-0.865052,-0.432526
57.057000,-0.349700,0.092000,-0.01,0.04,-0.022059,0.048529,-0.28,-1.15,-0.259516,-0.778547
57.090000,-0.350600,0.093200,-0.02,-0.01,-0.022059,0.005882,-0.07,-1.49,0.259516,-1.730104
57.123000,-0.351200,0.092400,-0.02,-0.07,-0.013235,-0.066176,0.04,-1.55,0.259516,-2.508651
57.157000,-0.351500,0.088700,-0.01,-0.12,-0.010294,-0.135294,0.05,-1.14,-0.086505,-1.557093
57.190000,-0.351900,0.083200,-0.01,-0.15,-0.013235,-0.166176,0.02,-0.34,-0.086505,-0.259516
57.224000,-0.352400,0.077400,-0.01,-0.15,-0.014706,-0.155882,0.05,0.54,0.000000,0.865052
57.257000,-0.352900,0.072600,-0.01,-0.11,-0.013235,-0.113235,0.13,1.18,0.086505,1.643599
57.290000,-0.353300,0.069700,-0.01,-0.06,-0.007353,-0.055882,0.21,1.40,0.259516,1.730104
57.324000,-0.353400,0.068800,0.00,-0.01,0.004412,0.000000,0.27,1.16,0.432526,1.557093
57.357000,-0.353000,0.069700,0.01,0.03,0.016176,0.041176,0.27,0.57,0.259516,0.865052
57.390000,-0.352300,0.071600,0.02,0.04,0.023529,0.050000,0.18,-0.14,0.173010,-0.346021
57.423000,-0.351400,0.073100,0.03,0.01,0.030882,0.020588,0.02,-0.63,0.259516,-1.384083
57.457000,-0.350200,0.073000,0.03,-0.02,0.030882,-0.025000,-0.14,-0.71,-0.259516,-1.297578
57.490000,-0.349300,0.071400,0.02,-0.04,0.017647,-0.052941,-0.23,-0.44,-0.519031,-0.346021
57.524000,-0.349000,0.069400,0.01,-0.05,0.002941,-0.052941,-0.21,-0.05,-0.346021,0.346021
57.557000,-0.349100,0.067800,0.00,-0.04,-0.002941,-0.039706,-0.11,0.26,-0.000000,0.432526
57.590000,-0.349200,0.066700,0.00,-0.03,0.001471,-0.029412,-0.02,0.47,0.259516,0.173010
57.624000,-0.349000,0.065800,0.00,-0.01,0.002941,-0.016176,0.04,0.53,-0.173010,0.605536
57.657000,-0.349000,0.065600,0.00,0.01,0.000000,0.013235,0.09,0.41,0.000000,1.124567
57.690000,-0.349000,0.066700,0.01,0.02,0.004412,0.036765,0.13,0.08,0.259516,0.259516
57.724000,-0.348700,0.068100,0.01,0.02,0.013235,0.026471,0.12,-0.28,0.259516,-0.865052
57.757000,-0.348100,0.068500,0.02,-0.00,0.020588,-0.004412,0.04,-0.46,0.173010,-0.951557
57.790000,-0.347300,0.067800,0.02,-0.02,0.019118,-0.026471,-0.05,-0.35,-0.259516,-0.346021
57.824000,-0.346800,0.066700,0.01,-0.03,0.008824,-0.032353,-0.09,-0.08,-0.346021,0.000000
57.857000,-0.346700,0.065600,0.01,-0.02,0.005882,-0.026471,-0.09,0.15,0.173010,0.346021
57.890000,-0.346400,0.064900,0.01,-0.01,0.010294,-0.013235,-0.10,0.24,0.086505,0.432526
57.924000,-0.346000,0.064700,0.00,-0.00,0.007353,-0.002941,-0.14,0.17,-0.259516,0.173010
57.957000,-0.345900,0.064700,-0.00,-0.00,-0.004412,0.002941,-0.12,-0.04,-0.432526,0.173010
57.990000,-0.346300,0.064900,-0.01,-0.01,-0.013235,0.001471,0.01,-0.34,-0.086505,-0.259516
58.024000,-0.346800,0.064800,-0.01,-0.02,-0.010294,-0.016176,0.24,-0.71,0.259516,-0.778547
58.057000,-0.347000,0.063800,0.01,-0.05,0.004412,-0.047059,0.43,-1.14,0.605536,-1.038062
58.090000,-0.346500,0.061600,0.03,-0.10,0.027941,-0.086765,0.46,-1.69,0.778547,-1.297578
58.124000,-0.345100,0.057900,0.04,-0.16,0.050000,-0.144118,0.26,-2.41,0.519031,-2.076125
58.157000,-0.343100,0.051800,0.05,-0.25,0.057353,-0.232353,-0.08,-3.19,-0.086505,-3.114187
58.191000,-0.341200,0.042100,0.04,-0.38,0.044118,-0.358824,-0.37,-3.79,-0.692042,-4.325260
58.224000,-0.340100,0.027400,0.02,-0.52,0.016176,-0.510294,-0.42,-3.92,-0.951557,-4.584775
58.257000,-0.340100,0.007400,0.00,-0.65,-0.007353,-0.654412,-0.15,-3.55,-0.432526,-3.892734
58.291000,-0.340600,-0.017100,0.00,-0.76,-0.008824,-0.758824,0.30,-2.81,0.346021,-2.249135
58.324000,-0.340700,-0.044200,0.02,-0.84,0.019118,-0.830882,0.63,-1.87,1.297578,-1.989619
58.357000,-0.339300,-0.073600,0.05,-0.89,0.060294,-0.886765,0.65,-0.88,1.124567,-1.297578
58.391000,-0.336600,-0.104500,0.08,-0.90,0.083824,-0.900000,0.33,-0.01,0.259516,0.519031
58.424000,-0.333600,-0.134800,0.08,-0.88,0.085294,-0.866176,-0.14,0.53,-0.173010,1.470588
58.457000,-0.330800,-0.163400,0.06,-0.85,0.069118,-0.825000,-0.47,0.64,-0.778547,0.951557
58.491000,-0.328900,-0.190900,0.04,-0.83,0.036765,-0.805882,-0.50,0.38,-1.124567,0.173010
58.524000,-0.328300,-0.218200,0.02,-0.82,0.011765,-0.804412,-0.26,0.04,-0.346021,-0.086505
58.557000,-0.328100,-0.245600,0.02,-0.83,0.013235,-0.813235,0.04,-0.13,0.432526,-0.432526
58.591000,-0.327400,-0.273500,0.03,-0.84,0.032353,-0.826471,0.20,-0.06,0.692042,-0.346021
58.624000,-0.325900,-0.301800,0.04,-0.84,0.047059,-0.830882,0.14,0.16,0.173010,0.086505
58.657000,-0.324200,-0.330000,0.04,-0.83,0.044118,-0.817647,-0.03,0.39,-0.346021,0.692042
58.691000,-0.322900,-0.357400,0.04,-0.81,0.035294,-0.791176,-0.18,0.51,-0.173010,0.865052
58.724000,-0.321800,-0.383800,0.03,-0.79,0.030882,-0.772059,-0.28,0.52,-0.086505,0.259516
58.757000,-0.320800,-0.409900,0.02,-0.78,0.022059,-0.761765,-0.36,0.54,-0.432526,0.346021
58.791000,-0.320300,-0.435600,0.00,-0.76,0.005882,-0.747059,-0.32,0.64,-0.519031,0.519031
58.824000,-0.320400,-0.460700,-0.01,-0.73,-0.013235,-0.725000,-0.08,0.80,-0.605536,0.778547
58.858000,-0.321200,-0.484900,-0.01,-0.70,-0.019118,-0.689706,0.29,0.95,0.259516,1.297578
58.891000,-0.321700,-0.507600,0.01,-0.67,0.007353,-0.654412,0.51,1.20,1.297578,0.778547
58.924000,-0.320700,-0.529400,0.04,-0.63,0.048529,-0.629412,0.41,1.74,1.124567,0.692042
58.958000,-0.318400,-0.550400,0.05,-0.56,0.061765,-0.577941,0.11,2.53,-0.346021,2.335640
58.991000,-0.316500,-0.568700,0.04,-0.46,0.038235,-0.466176,-0.10,3.30,-1.038062,4.238754
59.024000,-0.315800,-0.582100,0.03,-0.33,0.020588,-0.322059,-0.08,3.78,-0.000000,4.238754
59.057000,-0.315100,-0.590600,0.03,-0.20,0.030882,-0.192647,0.07,3.98,0.605536,3.373702
59.091000,-0.313700,-0.595200,0.04,-0.07,0.044118,-0.075000,0.18,4.06,0.173010,3.546713
59.124000,-0.312100,-0.595700,0.05,0.07,0.047059,0.060294,0.15,4.08,-0.000000,4.411765
59.158000,-0.310500,-0.591100,0.05,0.21,0.051471,0.210294,0.02,3.94,0.259516,4.411765
59.191000,-0.308600,-0.581400,0.05,0.34,0.054412,0.341176,-0.14,3.55,-0.086505,3.287197
59.224000,-0.306800,-0.567900,0.04,0.45,0.044118,0.445588,-0.27,2.88,-0.519031,2.854671
59.258000,-0.305600,-0.551100,0.03,0.53,0.027941,0.535294,-0.34,2.08,-0.432526,2.422145
59.291000,-0.304900,-0.531500,0.02,0.59,0.016176,0.592647,-0.32,1.38,-0.259516,0.951557
59.324000,-0.304500,-0.510800,0.01,0.62,0.008824,0.607353,-0.20,0.91,-0.173010,-0.086505
59.358000,-0.304300,-0.490200,0.00,0.64,-0.001471,0.619118,0.02,0.68,-0.432526,0.778547
59.391000,-0.304600,-0.468700,0.01,0.66,-0.002941,0.650000,0.28,0.55,0.346021,1.038062
59.424000,-0.304500,-0.446000,0.02,0.68,0.019118,0.676471,0.46,0.32,0.951557,0.519031
59.458000,-0.303300,-0.422700,0.04,0.69,0.047059,0.682353,0.43,-0.02,0.692042,-0.173010
59.491000,-0.301300,-0.399600,0.06,0.68,0.063235,0.667647,0.18,-0.25,0.259516,-0.692042
59.525000,-0.299000,-0.377300,0.06,0.66,0.061765,0.642647,-0.17,-0.22,-0.346021,-0.778547
59.558000,-0.297100,-0.355900,0.04,0.66,0.044118,0.633824,-0.45,-0.01,-0.692042,0.259516
59.591000,-0.296000,-0.334200,0.02,0.66,0.022059,0.650000,-0.58,0.27,-0.605536,0.692042
59.624000,-0.295600,-0.311700,0.00,0.68,0.001471,0.663235,-0.60,0.50,-0.605536,0.086505
59.658000,-0.295900,-0.289100,-0.02,0.70,-0.017647,0.676471,-0.49,0.63,-0.519031,0.692042
59.691000,-0.296800,-0.265700,-0.03,0.72,-0.038235,0.707353,-0.25,0.68,-0.692042,1.124567
59.724000,-0.298500,-0.241000,-0.04,0.74,-0.047059,0.736765,0.01,0.76,0.173010,0.605536
59.758000,-0.300000,-0.215600,-0.03,0.77,-0.030882,0.748529,0.09,1.06,0.778547,0.086505
59.791000,-0.300600,-0.190100,-0.02,0.80,-0.010294,0.769118,-0.11,1.68,0.432526,1.124567
59.825000,-0.300700,-0.163300,-0.03,0.87,-0.019118,0.835294,-0.43,2.40,-0.951557,2.768166
59.858000,-0.301900,-0.133300,-0.06,0.97,-0.060294,0.951471,-0.57,2.64,-1.470588,4.065744
59.891000,-0.304800,-0.098600,-0.08,1.08,-0.091176,1.076471,-0.39,1.85,-0.346021,3.287197
59.925000,-0.308100,-0.060100,-0.09,1.13,-0.091176,1.145588,-0.04,-0.06,0.346021,0.778547
59.958000,-0.311000,-0.020700,-0.08,1.09,-0.077941,1.111765,0.20,-2.56,0.432526,-2.768166
59.991000,-0.313400,0.015500,-0.07,0.95,-0.063235,0.963235,0.22,-4.86,0.432526,-5.968858
60.025000,-0.315300,0.044800,-0.06,0.74,-0.055882,0.733824,0.10,-6.28,0.000000,-7.525952
60.058000,-0.317200,0.065400,-0.06,0.50,-0.060294,0.482353,-0.00,-6.60,-0.259516,-7.266436
60.091000,-0.319400,0.077600,-0.06,0.28,-0.064706,0.258824,-0.04,-6.04,0.000000,-5.882353
60.125000,-0.321600,0.083000,-0.07,0.09,-0.063235,0.076471,-0.03,-4.94,0.086505,-4.844291
60.158000,-0.323700,0.082800,-0.07,-0.05,-0.063235,-0.070588,-0.03,-3.48,-0.086505,-3.806228
60.191000,-0.325900,0.078200,-0.07,-0.15,-0.064706,-0.173529,-0.04,-1.76,0.000000,-2.249135
60.225000,-0.328100,0.071000,-0.07,-0.18,-0.066176,-0.204412,-0.01,0.01,-0.086505,0.432526
60.258000,-0.330400,0.064300,-0.07,-0.14,-0.070588,-0.154412,0.09,1.43,-0.173010,2.508651
60.291000,-0.332900,0.060500,-0.06,-0.06,-0.066176,-0.060294,0.24,2.11,0.432526,3.027682
60.325000,-0.334900,0.060200,-0.05,0.02,-0.051471,0.033824,0.35,1.89,0.432526,2.508651
60.358000,-0.336400,0.062800,-0.04,0.08,-0.035294,0.098529,0.31,0.99,0.519031,1.297578
60.391000,-0.337300,0.066900,-0.03,0.09,-0.020588,0.113235,0.09,-0.10,0.346021,-0.432526
60.425000,-0.337800,0.070500,-0.03,0.07,-0.019118,0.072059,-0.19,-0.91,-0.259516,-1.989619
60.458000,-0.338600,0.071800,-0.04,0.02,-0.039706,0.010294,-0.32,-1.19,-0.951557,-1.643599
60.491000,-0.340500,0.071200,-0.06,-0.03,-0.066176,-0.033824,-0.18,-1.01,-0.605536,-0.951557
60.525000,-0.343100,0.069500,-0.06,-0.05,-0.069118,-0.055882,0.14,-0.61,0.432526,-0.346021
60.558000,-0.345200,0.067400,-0.05,-0.06,-0.047059,-0.067647,0.40,-0.16,0.865052,-0.346021
60.592000,-0.346300,0.064900,-0.03,-0.06,-0.022059,-0.070588,0.45,0.25,0.605536,0.173010
60.625000,-0.346700,0.062600,-0.01,-0.05,-0.008824,-0.051471,0.33,0.57,0.173010,0.951557
60.658000,-0.346900,0.061400,-0.00,-0.02,-0.004412,-0.020588,0.13,0.70,0.086505,0.865052
60.692000,-0.347000,0.061200,-0.00,0.01,-0.001471,0.010294,-0.06,0.60,0.086505,0.951557
60.725000,-0.347000,0.062100,-0.01,0.02,-0.004412,0.030882,-0.17,0.37,-0.259516,0.259516
60.758000,-0.347300,0.063300,-0.02,0.03,-0.019118,0.027941,-0.14,0.19,-0.605536,-0.432526
60.792000,-0.348300,0.064000,-0.02,0.03,-0.032353,0.025000,0.02,0.13,-0.173010,0.259516
60.825000,-0.349500,0.065000,-0.02,0.04,-0.022059,0.035294,0.20,0.17,0.778547,0.346021
60.858000,-0.349800,0.066400,-0.01,0.04,0.000000,0.042647,0.27,0.27,0.519031,0.086505
60.892000,-0.349500,0.067900,0.00,0.05,0.007353,0.047059,0.24,0.35,-0.086505,0.173010
60.925000,-0.349300,0.069600,0.01,0.07,0.005882,0.061765,0.17,0.34,0.000000,0.692042
60.958000,-0.349100,0.072100,0.01,0.08,0.010294,0.085294,0.12,0.11,0.259516,0.692042
60.992000,-0.348600,0.075400,0.02,0.08,0.020588,0.092647,0.05,-0.30,0.346021,-0.259516
61.025000,-0.347700,0.078400,0.02,0.06,0.023529,0.066176,-0.06,-0.69,-0.173010,-1.297578
61.058000,-0.347000,0.079900,0.01,0.03,0.013235,0.020588,-0.17,-0.83,-0.432526,-1.384083
61.092000,-0.346800,0.079800,0.01,-0.00,0.002941,-0.010294,-0.24,-0.75,-0.173010,-0.432526
61.125000,-0.346800,0.079200,-0.00,-0.02,-0.001471,-0.020588,-0.24,-0.64,-0.086505,-0.173010
61.158000,-0.346900,0.078400,-0.01,-0.04,-0.008824,-0.035294,-0.18,-0.66,-0.346021,-0.692042
61.192000,-0.347400,0.076800,-0.02,-0.06,-0.022059,-0.060294,-0.07,-0.75,-0.432526,-0.778547
61.225000,-0.348400,0.074300,-0.02,-0.09,-0.020588,-0.091176,0.00,-0.71,0.519031,-1.038062
61.259000,-0.348800,0.070600,-0.01,-0.12,-0.007353,-0.125000,0.02,-0.36,0.259516,-0.951557
61.292000,-0.348900,0.065800,-0.01,-0.13,-0.010294,-0.138235,-0.00,0.25,-0.432526,0.173010
61.325000,-0.349500,0.061200,-0.02,-0.10,-0.020588,-0.113235,0.02,0.91,-0.173010,1.297578
61.358000,-0.350300,0.058100,-0.02,-0.06,-0.019118,-0.060294,0.11,1.32,0.259516,1.816609
61.392000,-0.350800,0.057100,-0.01,-0.00,-0.007353,0.000000,0.20,1.29,0.432526,1.730104
61.425000,-0.350800,0.058100,0.00,0.04,0.002941,0.048529,0.21,0.85,0.173010,1.124567
61.458000,-0.350600,0.060400,0.01,0.06,0.007353,0.067647,0.18,0.21,0.086505,-0.000000
61.492000,-0.350300,0.062700,0.01,0.05,0.010294,0.055882,0.16,-0.39,0.086505,-0.692042
61.525000,-0.349900,0.064200,0.02,0.02,0.014706,0.025000,0.13,-0.76,0.173010,-1.124567
61.559000,-0.349300,0.064400,0.02,-0.01,0.025000,-0.010294,0.02,-0.82,0.432526,-0.951557
61.592000,-0.348200,0.063500,0.02,-0.04,0.027941,-0.041176,-0.12,-0.62,-0.259516,-0.865052
61.625000,-0.347400,0.061600,0.01,-0.05,0.011765,-0.060294,-0.18,-0.27,-0.692042,-0.259516
61.659000,-0.347400,0.059400,0.00,-0.06,-0.002941,-0.060294,-0.13,0.12,-0.173010,0.259516
61.692000,-0.347600,0.057500,0.00,-0.04,0.000000,-0.045588,-0.01,0.44,0.346021,0.605536
61.725000,-0.347400,0.056300,0.01,-0.02,0.008824,-0.025000,0.06,0.63,0.173010,0.605536
61.759000,-0.347000,0.055800,0.01,0.00,0.010294,0.000000,0.03,0.63,-0.086505,0.865052
61.792000,-0.346700,0.056300,0.01,0.02,0.007353,0.030882,-0.02,0.38,-0.086505,0.951557
61.825000,-0.346500,0.057900,0.01,0.03,0.005882,0.045588,-0.01,-0.03,-0.000000,-0.086505
61.859000,-0.346300,0.059400,0.01,0.02,0.004412,0.027941,0.06,-0.38,-0.086505,-0.951557
61.892000,-0.346200,0.059800,0.01,-0.00,0.005882,-0.005882,0.14,-0.44,0.173010,-1.038062
61.925000,-0.345900,0.059000,0.02,-0.02,0.017647,-0.027941,0.14,-0.21,0.519031,-0.259516
61.959000,-0.345000,0.057900,0.02,-0.02,0.027941,-0.020588,0.06,0.08,0.086505,0.692042
61.992000,-0.344000,0.057600,0.02,-0.00,0.023529,0.000000,-0.03,0.18,-0.346021,0.519031
62.025000,-0.343400,0.057900,0.02,0.00,0.013235,0.008824,-0.03,0.06,-0.259516,0.000000
62.059000,-0.343100,0.058200,0.02,0.00,0.011765,0.002941,0.08,-0.19,0.173010,-0.346021
62.092000,-0.342600,0.058100,0.02,-0.01,0.019118,-0.007353,0.22,-0.47,0.259516,-0.259516
62.125000,-0.341800,0.057700,0.03,-0.03,0.030882,-0.025000,0.28,-0.77,0.432526,-0.778547
62.159000,-0.340500,0.056400,0.04,-0.06,0.044118,-0.054412,0.21,-1.18,0.346021,-0.951557
62.192000,-0.338800,0.054000,0.05,-0.10,0.052941,-0.094118,0.04,-1.81,0.173010,-1.384083
62.226000,-0.336900,0.050000,0.05,-0.17,0.050000,-0.154412,-0.16,-2.65,-0.346021,-2.162630
62.259000,-0.335400,0.043500,0.04,-0.28,0.038235,-0.255882,-0.30,-3.45,-0.346021,-3.806228
62.292000,-0.334300,0.032600,0.02,-0.41,0.023529,-0.402941,-0.28,-3.86,-0.519031,-4.844291
62.326000,-0.333800,0.016100,0.01,-0.55,0.007353,-0.557353,-0.03,-3.71,-0.432526,-4.238754
62.359000,-0.333800,-0.005300,0.02,-0.67,0.004412,-0.672059,0.35,-3.14,0.259516,-2.508651
62.392000,-0.333500,-0.029600,0.04,-0.76,0.030882,-0.751471,0.66,-2.41,1.297578,-2.162630
62.426000,-0.331700,-0.056400,0.07,-0.83,0.073529,-0.822059,0.69,-1.64,1.211073,-1.989619
62.459000,-0.328500,-0.085500,0.09,-0.87,0.100000,-0.873529,0.43,-0.85,0.346021,-1.038062
62.492000,-0.324900,-0.115800,0.10,-0.89,0.102941,-0.883824,-0.02,-0.15,-0.173010,0.432526
62.526000,-0.321500,-0.145600,0.09,-0.88,0.094118,-0.858824,-0.46,0.23,-0.346021,1.038062
62.559000,-0.318500,-0.174200,0.07,-0.86,0.070588,-0.832353,-0.68,0.19,-1.038062,0.519031
62.592000,-0.316700,-0.202200,0.04,-0.86,0.030882,-0.832353,-0.58,-0.07,-1.297578,-0.519031
62.626000,-0.316400,-0.230800,0.02,-0.87,0.002941,-0.852941,-0.24,-0.23,-0.346021,-0.692042
62.659000,-0.316500,-0.260200,0.02,-0.88,0.014706,-0.870588,0.05,-0.06,1.038062,-0.346021
62.692000,-0.315400,-0.290000,0.03,-0.88,0.041176,-0.872059,0.11,0.36,0.519031,0.259516
62.726000,-0.313700,-0.319500,0.03,-0.86,0.041176,-0.850000,0.00,0.77,-0.519031,1.038062
62.759000,-0.312600,-0.347800,0.03,-0.82,0.020588,-0.804412,-0.09,1.00,-0.692042,1.643599
62.792000,-0.312300,-0.374200,0.02,-0.78,0.016176,-0.761765,-0.16,1.01,0.432526,0.865052
62.826000,-0.311500,-0.399600,0.02,-0.75,0.030882,-0.738235,-0.33,0.91,0.432526,0.519031
62.859000,-0.310200,-0.424400,0.01,-0.73,0.022059,-0.713235,-0.54,0.81,-0.951557,0.951557
62.893000,-0.310000,-0.448100,-0.02,-0.70,-0.023529,-0.683824,-0.51,0.72,-1.730104,0.778547
62.926000,-0.311800,-0.470900,-0.04,-0.68,-0.061765,-0.660294,-0.15,0.63,-0.519031,0.605536
62.959000,-0.314200,-0.493000,-0.03,-0.66,-0.044118,-0.642647,0.31,0.64,1.557093,0.432526
62.992000,-0.314800,-0.514600,-0.01,-0.64,0.002941,-0.633824,0.54,0.91,1.211073,0.086505
63.026000,-0.314000,-0.536100,0.01,-0.61,0.020588,-0.610294,0.47,1.52,-0.173010,1.297578
63.059000,-0.313400,-0.556100,0.02,-0.55,0.016176,-0.547059,0.29,2.38,-0.086505,2.422145
63.092000,-0.312900,-0.573300,0.03,-0.45,0.025000,-0.452941,0.18,3.34,0.605536,3.114187
63.126000,-0.311700,-0.586900,0.03,-0.32,0.038235,-0.329412,0.18,4.16,0.173010,4.152249
63.159000,-0.310300,-0.595700,0.04,-0.17,0.036765,-0.167647,0.25,4.67,-0.259516,5.363322
63.193000,-0.309200,-0.598300,0.05,0.00,0.038235,0.007353,0.32,4.78,0.346021,4.930796
63.226000,-0.307700,-0.595200,0.06,0.16,0.061765,0.166176,0.29,4.47,1.038062,4.411765
63.259000,-0.305000,-0.587000,0.07,0.31,0.083824,0.310294,0.13,3.84,0.259516,4.065744
63.293000,-0.302000,-0.574100,0.07,0.42,0.075000,0.429412,-0.08,3.05,-0.778547,2.941176
63.326000,-0.299900,-0.557800,0.06,0.51,0.055882,0.511765,-0.26,2.27,-0.346021,1.903114
63.359000,-0.298200,-0.539300,0.05,0.57,0.052941,0.566176,-0.35,1.69,0.173010,1.297578
63.393000,-0.296300,-0.519300,0.04,0.61,0.048529,0.601471,-0.37,1.39,-0.432526,0.778547
63.426000,-0.294900,-0.498400,0.03,0.66,0.023529,0.636765,-0.30,1.20,-1.038062,1.297578
63.459000,-0.294700,-0.476000,0.02,0.70,0.005882,0.692647,-0.12,0.83,-0.000000,1.989619
63.493000,-0.294500,-0.451300,0.02,0.72,0.013235,0.732353,0.07,0.24,0.432526,0.346021
63.526000,-0.293800,-0.426200,0.03,0.72,0.029412,0.713235,0.09,-0.31,0.519031,-1.470588
63.559000,-0.292500,-0.402800,0.03,0.69,0.038235,0.666176,-0.08,-0.46,-0.000000,-1.297578
63.593000,-0.291200,-0.380900,0.02,0.67,0.025000,0.644118,-0.24,-0.19,-0.778547,0.000000
63.626000,-0.290800,-0.359000,0.01,0.68,0.001471,0.657353,-0.23,0.25,-0.605536,0.778547
63.659000,-0.291100,-0.336200,0.00,0.69,-0.004412,0.682353,-0.11,0.52,0.259516,0.692042
63.693000,-0.291100,-0.312600,0.00,0.72,0.005882,0.702941,-0.01,0.58,0.346021,0.519031
63.726000,-0.290700,-0.288400,0.01,0.73,0.008824,0.719118,-0.01,0.59,-0.173010,0.432526
63.759000,-0.290500,-0.263700,0.00,0.75,0.001471,0.735294,-0.05,0.70,-0.259516,0.519031
63.793000,-0.290600,-0.238400,-0.00,0.78,-0.002941,0.755882,-0.09,0.93,-0.000000,0.692042
63.826000,-0.290700,-0.212300,-0.00,0.81,-0.001471,0.791176,-0.16,1.24,0.086505,1.384083
63.860000,-0.290700,-0.184600,-0.01,0.86,-0.001471,0.839706,-0.28,1.57,-0.086505,1.470588
63.893000,-0.290800,-0.155200,-0.02,0.92,-0.016176,0.894118,-0.38,1.80,-0.778547,1.730104
63.926000,-0.291800,-0.123800,-0.04,0.98,-0.041176,0.961765,-0.37,1.67,-0.692042,2.249135
63.960000,-0.293600,-0.089800,-0.05,1.05,-0.052941,1.038235,-0.25,0.81,-0.000000,2.249135
63.993000,-0.295400,-0.053200,-0.05,1.06,-0.051471,1.079412,-0.12,-0.90,0.086505,0.173010
64.026000,-0.297100,-0.016400,-0.05,1.00,-0.051471,1.023529,-0.08,-3.05,-0.086505,-3.460208
64.060000,-0.298900,0.016400,-0.06,0.85,-0.054412,0.855882,-0.09,-4.87,-0.086505,-6.401384
64.093000,-0.300800,0.041800,-0.06,0.65,-0.060294,0.632353,-0.05,-5.82,-0.259516,-6.747405
64.126000,-0.303000,0.059400,-0.06,0.44,-0.066176,0.419118,0.06,-5.82,-0.086505,-5.795848
64.160000,-0.305300,0.070300,-0.06,0.25,-0.058824,0.235294,0.13,-5.20,0.519031,-5.017301
64.193000,-0.307000,0.075400,-0.05,0.09,-0.044118,0.075000,0.09,-4.24,0.346021,-4.411765
64.226000,-0.308300,0.075400,-0.05,-0.04,-0.041176,-0.055882,-0.03,-3.04,-0.173010,-3.287197
64.260000,-0.309800,0.071600,-0.05,-0.12,-0.052941,-0.141176,-0.11,-1.60,-0.519031,-1.730104
64.293000,-0.311900,0.065800,-0.06,-0.15,-0.064706,-0.169118,-0.05,-0.11,-0.173010,0.086505
64.326000,-0.314200,0.060100,-0.06,-0.12,-0.063235,-0.136765,0.10,1.09,0.259516,1.816609
64.360000,-0.316200,0.056500,-0.05,-0.06,-0.050000,-0.061765,0.23,1.67,0.519031,2.595156
64.393000,-0.317600,0.055900,-0.04,0.01,-0.036765,0.019118,0.24,1.53,0.259516,2.162630
64.426000,-0.318700,0.057800,-0.03,0.05,-0.030882,0.070588,0.16,0.86,0.086505,0.865052
64.460000,-0.319700,0.060700,-0.03,0.07,-0.029412,0.077941,0.05,0.04,0.000000,-0.432526
64.493000,-0.320700,0.063100,-0.03,0.05,-0.029412,0.054412,-0.02,-0.58,-0.000000,-0.951557
64.527000,-0.321700,0.064400,-0.03,0.02,-0.030882,0.020588,-0.07,-0.86,-0.086505,-1.038062
64.560000,-0.322800,0.064500,-0.04,-0.01,-0.033824,-0.014706,-0.12,-0.80,-0.086505,-1.038062
64.593000,-0.324000,0.063400,-0.04,-0.04,-0.038235,-0.045588,-0.14,-0.47,-0.173010,-0.778547
64.627000,-0.325400,0.061400,-0.05,-0.05,-0.045588,-0.058824,-0.11,-0.01,-0.259516,0.000000
64.660000,-0.327100,0.059400,-0.05,-0.04,-0.051471,-0.044118,-0.04,0.40,-0.086505,0.865052
64.693000,-0.328900,0.058400,-0.05,-0.02,-0.050000,-0.013235,0.06,0.62,0.173010,0.951557
64.726000,-0.330500,0.058500,-0.04,0.01,-0.042647,0.010294,0.16,0.64,0.259516,0.432526
64.760000,-0.331800,0.059100,-0.04,0.03,-0.038235,0.027941,0.22,0.49,0.000000,0.605536
64.793000,-0.333100,0.060400,-0.03,0.04,-0.030882,0.047059,0.23,0.29,0.432526,0.519031
64.827000,-0.333900,0.062300,-0.02,0.05,-0.017647,0.051471,0.20,0.19,0.346021,-0.259516
64.860000,-0.334300,0.063900,-0.02,0.05,-0.013235,0.042647,0.18,0.21,-0.086505,-0.259516
64.893000,-0.334800,0.065200,-0.01,0.06,-0.013235,0.050000,0.17,0.31,0.086505,0.692042
64.927000,-0.335200,0.067300,-0.00,0.07,-0.005882,0.073529,0.14,0.34,0.346021,0.692042
64.960000,-0.335200,0.070200,0.00,0.09,0.005882,0.091176,0.03,0.18,0.346021,0.346021
64.993000,-0.334800,0.073500,0.00,0.09,0.007353,0.092647,-0.10,-0.11,-0.259516,-0.259516
65.027000,-0.334700,0.076500,-0.01,0.08,-0.008824,0.079412,-0.14,-0.40,-0.692042,-0.519031
65.060000,-0.335400,0.078900,-0.01,0.06,-0.023529,0.060294,-0.04,-0.60,-0.173010,-0.605536
65.093000,-0.336300,0.080600,-0.01,0.04,-0.016176,0.038235,0.10,-0.66,0.605536,-0.692042
65.127000,-0.336500,0.081500,-0.00,0.01,0.001471,0.010294,0.12,-0.54,0.432526,-0.951557
65.160000,-0.336200,0.081300,0.00,-0.00,0.005882,-0.014706,0.04,-0.26,-0.173010,-0.519031
65.194000,-0.336100,0.080500,-0.00,-0.01,-0.002941,-0.014706,-0.03,0.03,-0.346021,0.519031
65.227000,-0.336400,0.080300,-0.01,0.00,-0.010294,0.004412,0.00,0.16,-0.086505,0.605536
65.260000,-0.336800,0.080800,-0.00,0.01,-0.005882,0.017647,0.06,0.00,0.346021,0.173010
65.293000,-0.336800,0.081500,0.00,0.01,0.005882,0.014706,0.03,-0.39,0.346021,-0.346021
65.327000,-0.336400,0.081800,0.00,-0.01,0.007353,-0.005882,-0.08,-0.82,-0.259516,-0.865052
65.360000,-0.336300,0.081100,-0.00,-0.05,-0.005882,-0.044118,-0.18,-1.06,-0.519031,-1.384083
65.393000,-0.336800,0.078800,-0.01,-0.09,-0.016176,-0.095588,-0.20,-0.89,-0.086505,-1.643599
65.427000,-0.337400,0.074600,-0.02,-0.12,-0.017647,-0.136765,-0.12,-0.28,0.000000,-0.778547
65.460000,-0.338000,0.069500,-0.02,-0.12,-0.022059,-0.135294,0.02,0.56,-0.259516,0.865052
65.494000,-0.338900,0.065400,-0.02,-0.08,-0.025000,-0.086765,0.18,1.22,0.086505,1.989619
65.527000,-0.339700,0.063600,-0.01,-0.02,-0.013235,-0.019118,0.30,1.42,0.605536,1.989619
65.560000,-0.339800,0.064100,0.00,0.03,0.007353,0.035294,0.32,1.17,0.605536,1.211073
65.594000,-0.339200,0.066000,0.02,0.06,0.019118,0.064706,0.22,0.64,0.086505,0.519031
65.627000,-0.338500,0.068500,0.02,0.07,0.020588,0.075000,0.05,0.06,0.000000,0.086505
65.660000,-0.337800,0.071100,0.02,0.06,0.020588,0.067647,-0.11,-0.45,-0.000000,-0.519031
65.694000,-0.337100,0.073100,0.01,0.04,0.013235,0.038235,-0.20,-0.77,-0.432526,-1.211073
65.727000,-0.336900,0.073700,0.00,0.00,0.001471,0.000000,-0.21,-0.82,-0.259516,-1.038062
65.760000,-0.337000,0.073100,-0.00,-0.03,-0.005882,-0.032353,-0.15,-0.57,-0.173010,-0.865052
65.794000,-0.337300,0.071500,-0.01,-0.04,-0.010294,-0.048529,-0.02,-0.12,-0.086505,-0.086505
65.827000,-0.337700,0.069800,-0.01,-0.03,-0.010294,-0.041176,0.08,0.36,0.086505,0.519031
65.861000,-0.338000,0.068700,-0.00,-0.01,0.000000,-0.016176,0.09,0.65,0.519031,0.951557
65.894000,-0.337700,0.068700,0.00,0.02,0.010294,0.017647,0.03,0.66,0.086505,1.038062
65.927000,-0.337300,0.069900,0.00,0.04,0.002941,0.045588,-0.01,0.37,-0.519031,0.605536
65.960000,-0.337500,0.071800,-0.00,0.04,-0.007353,0.052941,0.01,-0.08,-0.086505,-0.173010
65.994000,-0.337800,0.073500,0.00,0.03,-0.002941,0.038235,0.06,-0.47,0.346021,-0.692042
66.027000,-0.337700,0.074400,0.01,0.01,0.008824,0.007353,0.06,-0.63,0.346021,-1.124567
66.060000,-0.337200,0.074000,0.01,-0.02,0.011765,-0.025000,-0.02,-0.46,-0.173010,-0.778547
66.094000,-0.336900,0.072700,0.00,-0.03,0.002941,-0.039706,-0.08,-0.07,-0.346021,-0.086505
66.127000,-0.337000,0.071300,-0.00,-0.02,-0.005882,-0.027941,-0.01,0.31,-0.173010,0.778547
66.161000,-0.337300,0.070800,-0.00,-0.00,-0.004412,-0.001471,0.15,0.48,0.259516,0.778547
66.194000,-0.337300,0.071200,0.01,0.02,0.008824,0.022059,0.27,0.37,0.519031,0.605536
66.227000,-0.336700,0.072300,0.02,0.03,0.025000,0.032353,0.27,0.01,0.432526,-0.000000
66.261000,-0.335600,0.073400,0.03,0.02,0.032353,0.026471,0.19,-0.51,0.000000,-0.346021
66.294000,-0.334500,0.074100,0.03,-0.01,0.030882,0.004412,0.09,-1.12,-0.086505,-0.951557
66.327000,-0.333500,0.073700,0.03,-0.05,0.032353,-0.041176,-0.01,-1.79,0.173010,-1.730104
66.361000,-0.332300,0.071300,0.03,-0.12,0.036765,-0.113235,-0.11,-2.45,0.086505,-2.508651
66.394000,-0.331000,0.066000,0.03,-0.22,0.030882,-0.207353,-0.17,-3.05,-0.432526,-3.027682
66.427000,-0.330200,0.057200,0.02,-0.33,0.016176,-0.317647,-0.13,-3.57,-0.432526,-3.460208
66.461000,-0.329900,0.044400,0.02,-0.46,0.008824,-0.442647,0.04,-3.89,0.000000,-3.892734
66.494000,-0.329600,0.027100,0.02,-0.60,0.017647,-0.585294,0.28,-3.85,0.519031,-4.498270
66.527000,-0.328700,0.004600,0.04,-0.73,0.033824,-0.727941,0.48,-3.38,0.432526,-3.892734
66.561000,-0.327300,-0.022400,0.06,-0.83,0.051471,-0.830882,0.56,-2.52,0.605536,-2.162630
66.594000,-0.325200,-0.051900,0.08,-0.90,0.076471,-0.892647,0.45,-1.40,0.865052,-1.470588
66.627000,-0.322100,-0.083100,0.09,-0.93,0.098529,-0.927941,0.16,-0.28,0.432526,-0.605536
66.661000,-0.318500,-0.115000,0.09,-0.91,0.097059,-0.913235,-0.19,0.51,-0.519031,1.470588
66.694000,-0.315500,-0.145200,0.07,-0.88,0.073529,-0.851471,-0.40,0.76,-0.865052,2.162630
66.727000,-0.313500,-0.172900,0.06,-0.85,0.048529,-0.808824,-0.35,0.55,-0.605536,0.346021
66.761000,-0.312200,-0.200200,0.05,-0.84,0.039706,-0.819118,-0.14,0.24,0.086505,-0.951557
66.794000,-0.310800,-0.228600,0.05,-0.84,0.045588,-0.836765,0.04,0.20,0.259516,-0.086505
66.827000,-0.309100,-0.257100,0.05,-0.83,0.055882,-0.825000,0.03,0.41,0.346021,0.778547
66.861000,-0.307000,-0.284700,0.05,-0.81,0.058824,-0.794118,-0.12,0.62,-0.173010,1.038062
66.894000,-0.305100,-0.311100,0.05,-0.79,0.047059,-0.766176,-0.29,0.69,-0.519031,0.605536
66.928000,-0.303800,-0.336800,0.03,-0.77,0.030882,-0.750000,-0.42,0.74,-0.432526,0.346021
66.961000,-0.303000,-0.362100,0.02,-0.74,0.019118,-0.733824,-0.48,0.86,-0.259516,0.605536
66.994000,-0.302500,-0.386700,0.00,-0.71,0.002941,-0.700000,-0.48,0.94,-0.692042,1.384083
67.027000,-0.302800,-0.409700,-0.02,-0.67,-0.020588,-0.651471,-0.43,0.88,-0.692042,1.470588
67.061000,-0.303900,-0.431000,-0.03,-0.65,-0.032353,-0.623529,-0.31,0.75,0.000000,0.173010
67.094000,-0.305000,-0.452100,-0.04,-0.63,-0.036765,-0.620588,-0.11,0.66,-0.259516,0.000000
67.127000,-0.306400,-0.473200,-0.04,-0.61,-0.044118,-0.601471,0.16,0.64,-0.173010,1.124567
67.161000,-0.308000,-0.493000,-0.03,-0.58,-0.036765,-0.563235,0.38,0.71,0.605536,1.124567
67.194000,-0.308900,-0.511500,-0.01,-0.56,-0.007353,-0.545588,0.48,0.97,1.124567,-0.086505
67.228000,-0.308500,-0.530100,0.01,-0.53,0.016176,-0.535294,0.40,1.48,0.259516,0.692042
67.261000,-0.307800,-0.547900,0.02,-0.47,0.020588,-0.477941,0.20,2.23,0.000000,2.681661
67.294000,-0.307100,-0.562600,0.02,-0.38,0.022059,-0.375000,0.02,3.05,0.086505,3.373702
67.328000,-0.306300,-0.573400,0.02,-0.26,0.019118,-0.261765,-0.02,3.78,-0.259516,3.287197
67.361000,-0.305800,-0.580400,0.02,-0.12,0.011765,-0.135294,0.05,4.34,-0.173010,4.152249
67.394000,-0.305500,-0.582600,0.02,0.03,0.014706,0.025000,0.13,4.62,0.346021,5.276817
67.428000,-0.304800,-0.578700,0.03,0.19,0.029412,0.200000,0.13,4.48,0.519031,5.017301
67.461000,-0.303500,-0.569000,0.03,0.34,0.038235,0.351471,0.01,3.87,0.000000,3.892734
67.494000,-0.302200,-0.554800,0.03,0.46,0.032353,0.466176,-0.13,2.96,-0.346021,2.854671
67.528000,-0.301300,-0.537300,0.02,0.54,0.017647,0.542647,-0.13,2.00,-0.519031,1.643599
67.561000,-0.301000,-0.517900,0.02,0.59,0.007353,0.585294,0.02,1.16,-0.086505,0.865052
67.594000,-0.300800,-0.497500,0.02,0.61,0.014706,0.607353,0.17,0.57,0.519031,0.432526
67.628000,-0.300000,-0.476600,0.03,0.62,0.036765,0.610294,0.15,0.29,0.778547,-0.259516
67.661000,-0.298300,-0.456000,0.04,0.62,0.045588,0.604412,-0.01,0.25,-0.259516,-0.086505
67.694000,-0.296900,-0.435500,0.03,0.64,0.027941,0.619118,-0.15,0.23,-0.778547,0.951557
67.728000,-0.296400,-0.413900,0.02,0.65,0.013235,0.645588,-0.17,0.08,-0.086505,0.605536
67.761000,-0.296000,-0.391600,0.02,0.64,0.017647,0.641176,-0.16,-0.14,0.346021,-0.865052
67.794000,-0.295200,-0.370300,0.01,0.63,0.020588,0.614706,-0.18,-0.30,-0.173010,-0.692042
67.828000,-0.294600,-0.349800,0.01,0.62,0.005882,0.602941,-0.20,-0.26,-0.692042,-0.000000
67.861000,-0.294800,-0.329300,-0.00,0.61,-0.010294,0.600000,-0.15,-0.02,-0.259516,-0.173010
67.895000,-0.295300,-0.309000,-0.01,0.62,-0.008824,0.597059,-0.10,0.33,0.346021,0.000000
67.928000,-0.295400,-0.288700,-0.01,0.63,0.001471,0.610294,-0.14,0.64,0.259516,0.778547
67.961000,-0.295200,-0.267500,-0.01,0.66,-0.004412,0.648529,-0.26,0.79,-0.605536,1.470588
67.995000,-0.295700,-0.244600,-0.02,0.69,-0.027941,0.688235,-0.35,0.81,-0.778547,0.865052
68.028000,-0.297100,-0.220700,-0.04,0.72,-0.044118,0.702941,-0.36,0.90,-0.173010,0.000000
68.061000,-0.298700,-0.196800,-0.05,0.74,-0.045588,0.714706,-0.37,1.23,0.086505,0.692042
68.095000,-0.300200,-0.172100,-0.06,0.79,-0.052941,0.761765,-0.42,1.72,-0.519031,2.076125
68.128000,-0.302300,-0.145000,-0.08,0.86,-0.075000,0.842647,-0.38,2.04,-0.778547,2.681661
68.161000,-0.305300,-0.114800,-0.09,0.94,-0.100000,0.929412,-0.08,1.84,-0.692042,2.422145
68.195000,-0.309100,-0.081800,-0.09,1.00,-0.104412,0.997059,0.40,0.97,0.432526,1.557093
68.228000,-0.312400,-0.047000,-0.06,1.02,-0.067647,1.022059,0.76,-0.45,1.730104,-0.086505
68.261000,-0.313700,-0.012300,-0.03,0.98,-0.017647,0.986765,0.77,-2.16,1.211073,-1.989619
68.295000,-0.313600,0.020100,-0.00,0.87,0.005882,0.879412,0.47,-3.77,0.173010,-4.325260
68.328000,-0.313300,0.047500,0.00,0.71,0.005882,0.710294,0.08,-4.97,-0.173010,-5.622837
68.361000,-0.313200,0.068400,-0.00,0.53,-0.001471,0.516176,-0.24,-5.62,-0.259516,-5.795848
68.395000,-0.313400,0.082600,-0.01,0.33,-0.010294,0.323529,-0.45,-5.69,-0.259516,-5.536332
68.428000,-0.313900,0.090400,-0.03,0.14,-0.027941,0.129412,-0.51,-5.16,-0.778547,-5.882353
68.461000,-0.315300,0.091400,-0.05,-0.03,-0.057353,-0.052941,-0.40,-3.96,-0.951557,-4.844291
68.495000,-0.317800,0.086800,-0.06,-0.14,-0.073529,-0.176471,-0.13,-2.21,0.000000,-2.422145
68.528000,-0.320300,0.079400,-0.06,-0.18,-0.064706,-0.210294,0.17,-0.36,0.519031,0.432526
68.562000,-0.322200,0.072500,-0.05,-0.15,-0.048529,-0.164706,0.39,1.04,0.432526,2.249135
68.595000,-0.323600,0.068200,-0.03,-0.09,-0.035294,-0.086765,0.47,1.71,0.346021,2.335640
68.628000,-0.324600,0.066600,-0.02,-0.03,-0.017647,-0.017647,0.44,1.67,0.692042,1.730104
68.662000,-0.324800,0.067000,-0.00,0.03,0.001471,0.035294,0.32,1.18,0.432526,1.384083
68.695000,-0.324500,0.069000,0.01,0.06,0.010294,0.069118,0.14,0.48,0.086505,0.605536
68.728000,-0.324100,0.071700,0.01,0.06,0.010294,0.070588,-0.06,-0.20,-0.086505,-0.519031
68.761000,-0.323800,0.073800,0.00,0.04,0.001471,0.042647,-0.18,-0.67,-0.432526,-1.124567
68.795000,-0.324000,0.074600,-0.01,0.01,-0.010294,0.002941,-0.19,-0.79,-0.259516,-1.211073
68.828000,-0.324500,0.074000,-0.01,-0.02,-0.016176,-0.029412,-0.14,-0.60,-0.086505,-0.692042
68.862000,-0.325100,0.072600,-0.02,-0.04,-0.016176,-0.041176,-0.11,-0.29,0.086505,0.000000
68.895000,-0.325600,0.071200,-0.02,-0.04,-0.016176,-0.036765,-0.09,-0.03,-0.086505,0.259516
68.928000,-0.326200,0.070100,-0.02,-0.03,-0.023529,-0.033824,-0.07,0.15,-0.346021,-0.086505
68.962000,-0.327200,0.068900,-0.03,-0.03,-0.029412,-0.030882,-0.01,0.31,0.000000,0.259516
68.995000,-0.328200,0.068000,-0.02,-0.02,-0.025000,-0.019118,0.07,0.46,0.259516,0.432526
69.028000,-0.328900,0.067600,-0.02,0.00,-0.017647,0.002941,0.14,0.58,0.173010,0.865052
69.062000,-0.329400,0.068200,-0.02,0.03,-0.016176,0.027941,0.21,0.58,-0.086505,0.605536
69.095000,-0.330000,0.069500,-0.01,0.05,-0.011765,0.047059,0.28,0.47,0.346021,0.519031
69.128000,-0.330200,0.071400,0.00,0.06,0.004412,0.060294,0.31,0.31,0.605536,0.259516
69.162000,-0.329700,0.073600,0.02,0.06,0.020588,0.064706,0.25,0.16,0.346021,0.000000
69.195000,-0.328800,0.075800,0.02,0.07,0.026471,0.066176,0.12,-0.01,0.000000,0.086505
69.229000,-0.327900,0.078100,0.02,0.07,0.023529,0.070588,-0.01,-0.21,-0.173010,0.173010
69.262000,-0.327200,0.080600,0.02,0.06,0.020588,0.060294,-0.08,-0.38,0.000000,-0.778547
69.295000,-0.326500,0.082200,0.02,0.04,0.017647,0.033824,-0.09,-0.47,-0.173010,-0.778547
69.328000,-0.326000,0.082900,0.01,0.02,0.013235,0.014706,-0.08,-0.43,-0.086505,-0.346021
69.362000,-0.325600,0.083200,0.01,0.01,0.010294,0.005882,-0.07,-0.25,-0.086505,-0.173010
69.395000,-0.325300,0.083300,0.01,0.00,0.010294,0.000000,-0.06,0.00,0.086505,-0.173010
69.428000,-0.324900,0.083200,0.01,0.01,0.008824,0.000000,-0.07,0.22,-0.173010,0.173010
69.462000,-0.324700,0.083300,0.01,0.02,0.005882,0.017647,-0.12,0.29,-0.000000,0.865052
69.495000,-0.324500,0.084400,0.00,0.03,0.004412,0.039706,-0.16,0.16,-0.086505,0.432526
69.529000,-0.324400,0.086000,-0.01,0.03,-0.005882,0.041176,-0.16,-0.16,-0.519031,-0.346021
69.562000,-0.324900,0.087200,-0.01,0.02,-0.017647,0.023529,-0.14,-0.54,-0.173010,-0.692042
69.595000,-0.325600,0.087600,-0.01,-0.00,-0.014706,0.001471,-0.14,-0.87,0.346021,-0.605536
69.629000,-0.325900,0.087300,-0.02,-0.04,-0.011765,-0.030882,-0.18,-1.05,-0.173010,-1.297578
69.662000,-0.326400,0.085500,-0.03,-0.08,-0.025000,-0.077941,-0.18,-0.97,-0.605536,-1.470588
69.695000,-0.327600,0.082000,-0.04,-0.11,-0.041176,-0.120588,-0.07,-0.56,-0.346021,-1.038062
69.729000,-0.329200,0.077300,-0.03,-0.12,-0.039706,-0.135294,0.13,0.14,0.432526,0.173010
69.762000,-0.330300,0.072800,-0.02,-0.10,-0.025000,-0.111765,0.29,0.87,0.432526,1.211073
69.795000,-0.330900,0.069700,-0.01,-0.06,-0.010294,-0.061765,0.35,1.35,0.432526,1.730104
69.829000,-0.331000,0.068600,0.00,-0.00,0.001471,0.000000,0.32,1.36,0.259516,1.903114
69.862000,-0.330800,0.069700,0.01,0.04,0.010294,0.055882,0.22,0.88,0.259516,1.384083
69.896000,-0.330300,0.072400,0.02,0.06,0.019118,0.080882,0.10,0.13,0.259516,0.086505
69.929000,-0.329500,0.075200,0.02,0.05,0.020588,0.061765,-0.03,-0.57,-0.173010,-1.211073
69.962000,-0.328900,0.076600,0.01,0.02,0.011765,0.016176,-0.12,-0.92,-0.346021,-1.470588
69.995000,-0.328700,0.076300,0.01,-0.02,0.004412,-0.027941,-0.17,-0.84,-0.086505,-1.124567
70.029000,-0.328600,0.074700,0.00,-0.05,0.002941,-0.052941,-0.20,-0.43,0.000000,-0.346021
70.062000,-0.328500,0.072700,-0.01,-0.05,-0.001471,-0.057353,-0.24,0.10,-0.259516,0.086505
70.095000,-0.328700,0.070800,-0.01,-0.04,-0.014706,-0.047059,-0.25,0.56,-0.519031,0.519031
70.129000,-0.329500,0.069500,-0.02,-0.01,-0.026471,-0.014706,-0.20,0.79,-0.173010,1.384083
70.162000,-0.330500,0.069800,-0.03,0.02,-0.030882,0.030882,-0.08,0.67,-0.086505,1.297578
70.196000,-0.331600,0.071600,-0.03,0.04,-0.030882,0.055882,0.07,0.24,0.086505,0.173010
70.229000,-0.332600,0.073600,-0.02,0.04,-0.026471,0.048529,0.18,-0.31,0.173010,-0.605536
70.262000,-0.333400,0.074900,-0.02,0.02,-0.016176,0.022059,0.22,-0.71,0.432526,-0.951557
70.296000,-0.333700,0.075100,-0.01,-0.01,-0.004412,-0.014706,0.18,-0.77,0.259516,-1.211073
70.329000,-0.333700,0.073900,-0.00,-0.04,-0.001471,-0.048529,0.09,-0.47,-0.086505,-0.778547
70.362000,-0.333800,0.071800,-0.00,-0.05,-0.001471,-0.060294,0.01,0.01,0.086505,0.086505
70.396000,-0.333800,0.069800,-0.00,-0.04,-0.002941,-0.044118,-0.01,0.44,-0.173010,0.865052
70.429000,-0.334000,0.068800,-0.00,-0.01,-0.007353,-0.013235,0.02,0.62,-0.086505,0.951557
70.462000,-0.334300,0.068900,-0.00,0.01,-0.004412,0.016176,0.08,0.46,0.259516,0.778547
70.496000,-0.334300,0.069900,0.00,0.02,0.002941,0.032353,0.14,0.02,0.173010,0.173010
70.529000,-0.334100,0.071100,0.01,0.01,0.005882,0.023529,0.18,-0.53,-0.000000,-0.692042
70.562000,-0.333900,0.071500,0.01,-0.01,0.010294,-0.007353,0.18,-1.10,0.259516,-1.124567
70.596000,-0.333400,0.070600,0.02,-0.06,0.022059,-0.052941,0.12,-1.65,0.432526,-1.557093
70.629000,-0.332400,0.067900,0.02,-0.12,0.027941,-0.111765,0.01,-2.22,-0.086505,-1.903114
70.662000,-0.331500,0.063000,0.02,-0.21,0.020588,-0.192647,-0.09,-2.79,-0.346021,-2.854671
70.696000,-0.331000,0.054800,0.02,-0.31,0.013235,-0.297059,-0.17,-3.30,-0.086505,-3.287197
70.729000,-0.330600,0.042800,0.01,-0.43,0.010294,-0.417647,-0.17,-3.60,-0.086505,-3.806228
70.762000,-0.330300,0.026400,0.00,-0.56,0.004412,-0.550000,-0.08,-3.57,-0.259516,-3.979239
70.796000,-0.330300,0.005400,-0.00,-0.68,-0.005882,-0.675000,0.14,-3.12,-0.346021,-3.373702
70.829000,-0.330700,-0.019500,0.01,-0.77,-0.001471,-0.775000,0.41,-2.33,0.605536,-2.508651
70.863000,-0.330400,-0.047300,0.03,-0.84,0.026471,-0.836765,0.57,-1.36,1.038062,-1.124567
70.896000,-0.328900,-0.076400,0.05,-0.86,0.060294,-0.857353,0.48,-0.48,0.951557,-0.086505
70.929000,-0.326300,-0.105600,0.07,-0.86,0.076471,-0.850000,0.19,0.14,0.000000,0.519031
70.963000,-0.323700,-0.134200,0.07,-0.85,0.067647,-0.830882,-0.09,0.43,-0.519031,0.605536
70.996000,-0.321700,-0.162100,0.06,-0.83,0.051471,-0.808824,-0.19,0.40,-0.432526,0.692042
71.029000,-0.320200,-0.189200,0.05,-0.81,0.045588,-0.792647,-0.17,0.21,0.086505,0.259516
71.063000,-0.318600,-0.216000,0.05,-0.81,0.047059,-0.792647,-0.18,0.07,-0.000000,-0.259516
71.096000,-0.317000,-0.243100,0.04,-0.82,0.044118,-0.805882,-0.29,0.14,-0.173010,-0.519031
71.129000,-0.315600,-0.270800,0.03,-0.81,0.030882,-0.805882,-0.45,0.39,-0.605536,0.519031
71.163000,-0.314900,-0.297900,0.01,-0.79,0.010294,-0.777941,-0.52,0.63,-0.605536,1.124567
71.196000,-0.314900,-0.323700,-0.01,-0.76,-0.014706,-0.742647,-0.41,0.68,-0.865052,0.951557
71.229000,-0.315900,-0.348400,-0.02,-0.74,-0.032353,-0.717647,-0.20,0.55,-0.173010,0.519031
71.263000,-0.317100,-0.372500,-0.02,-0.73,-0.023529,-0.707353,-0.09,0.42,0.692042,0.086505
71.296000,-0.317500,-0.396500,-0.02,-0.72,-0.011765,-0.707353,-0.13,0.47,0.000000,-0.086505
71.329000,-0.317900,-0.420600,-0.03,-0.70,-0.023529,-0.694118,-0.21,0.63,-0.692042,0.865052
71.363000,-0.319100,-0.443700,-0.04,-0.67,-0.048529,-0.658824,-0.13,0.72,-0.778547,1.211073
71.396000,-0.321200,-0.465400,-0.05,-0.64,-0.055882,-0.623529,0.14,0.65,0.346021,0.865052
71.429000,-0.322900,-0.486100,-0.03,-0.63,-0.033824,-0.608824,0.41,0.58,0.951557,-0.000000
71.463000,-0.323500,-0.506800,-0.01,-0.61,-0.005882,-0.610294,0.49,0.78,0.692042,-0.086505
71.496000,-0.323300,-0.527600,0.01,-0.59,0.010294,-0.591176,0.39,1.33,0.259516,1.211073
71.529000,-0.322800,-0.547000,0.02,-0.53,0.014706,-0.530882,0.25,2.15,0.000000,2.335640
71.563000,-0.322300,-0.563700,0.02,-0.44,0.019118,-0.442647,0.22,3.08,0.259516,2.854671
71.596000,-0.321500,-0.577100,0.03,-0.32,0.025000,-0.333824,0.33,3.97,0.086505,3.546713
71.629000,-0.320600,-0.586400,0.04,-0.18,0.033824,-0.186765,0.45,4.67,0.432526,5.103806
71.663000,-0.319200,-0.589800,0.06,-0.01,0.057353,-0.004412,0.42,5.01,0.951557,5.622837
71.696000,-0.316700,-0.586700,0.08,0.17,0.085294,0.176471,0.18,4.82,0.692042,5.017301
71.729000,-0.313400,-0.577800,0.08,0.33,0.085294,0.335294,-0.12,4.11,-0.692042,4.325260
71.763000,-0.310900,-0.563900,0.06,0.45,0.055882,0.461765,-0.25,3.13,-1.038062,3.114187
71.796000,-0.309600,-0.546400,0.05,0.54,0.038235,0.539706,-0.13,2.14,0.000000,1.470588
71.829000,-0.308300,-0.527200,0.05,0.59,0.047059,0.580882,0.14,1.25,0.519031,0.951557
71.863000,-0.306400,-0.506900,0.06,0.62,0.061765,0.614706,0.35,0.54,0.346021,1.038062
71.896000,-0.304100,-0.485400,0.08,0.62,0.075000,0.623529,0.34,0.09,0.432526,-0.519031
71.930000,-0.301300,-0.464500,0.09,0.61,0.092647,0.597059,0.10,-0.05,0.605536,-1.038062
71.963000,-0.297800,-0.444800,0.09,0.61,0.100000,0.583824,-0.28,0.02,-0.173010,0.259516
71.996000,-0.294500,-0.424800,0.07,0.62,0.076471,0.605882,-0.63,0.07,-1.211073,1.038062
72.030000,-0.292600,-0.403600,0.04,0.62,0.036765,0.625000,-0.75,-0.10,-1.124567,0.086505
72.063000,-0.292000,-0.382300,0.01,0.61,0.005882,0.611765,-0.62,-0.37,-0.692042,-0.865052
72.096000,-0.292200,-0.362000,-0.00,0.59,-0.007353,0.576471,-0.34,-0.40,-0.086505,-1.211073
72.130000,-0.292500,-0.343100,-0.01,0.58,-0.010294,0.550000,-0.08,-0.12,-0.086505,-0.346021
72.163000,-0.292900,-0.324600,-0.01,0.58,-0.008824,0.561765,0.02,0.25,0.173010,1.038062
72.196000,-0.293100,-0.304900,-0.00,0.60,0.001471,0.595588,-0.07,0.43,0.432526,0.951557
72.230000,-0.292800,-0.284100,-0.01,0.62,0.002941,0.611765,-0.24,0.44,-0.346021,0.000000
72.263000,-0.292900,-0.263300,-0.02,0.63,-0.017647,0.610294,-0.33,0.49,-0.865052,-0.086505
72.296000,-0.294000,-0.242600,-0.03,0.64,-0.041176,0.620588,-0.24,0.74,-0.519031,0.692042
72.330000,-0.295700,-0.221100,-0.04,0.67,-0.047059,0.654412,-0.02,1.19,0.173010,1.297578
72.363000,-0.297200,-0.198100,-0.03,0.72,-0.033824,0.701471,0.11,1.66,0.605536,1.470588
72.396000,-0.298000,-0.173400,-0.02,0.79,-0.017647,0.766176,-0.01,1.95,0.346021,2.335640
72.430000,-0.298400,-0.146000,-0.03,0.86,-0.017647,0.845588,-0.25,1.95,-0.346021,2.335640
72.463000,-0.299200,-0.115900,-0.05,0.93,-0.044118,0.916176,-0.35,1.57,-1.211073,1.816609
72.496000,-0.301400,-0.083700,-0.06,0.97,-0.072059,0.964706,-0.24,0.70,-0.432526,1.038062
72.530000,-0.304100,-0.050300,-0.06,0.98,-0.067647,0.985294,-0.07,-0.72,0.692042,0.173010
72.563000,-0.306000,-0.016700,-0.06,0.94,-0.050000,0.955882,-0.02,-2.52,0.346021,-1.903114
72.596000,-0.307500,0.014700,-0.06,0.82,-0.052941,0.833824,-0.06,-4.23,-0.519031,-5.276817
72.630000,-0.309600,0.040000,-0.07,0.64,-0.072059,0.629412,-0.00,-5.35,-0.605536,-6.747405
72.663000,-0.312400,0.057500,-0.07,0.44,-0.077941,0.417647,0.16,-5.61,0.259516,-5.709343
72.697000,-0.314900,0.068400,-0.05,0.25,-0.051471,0.235294,0.24,-5.14,1.297578,-5.017301
72.730000,-0.315900,0.073500,-0.04,0.09,-0.027941,0.075000,0.16,-4.22,0.086505,-4.411765
72.763000,-0.316800,0.073500,-0.04,-0.04,-0.039706,-0.054412,0.02,-3.01,-0.778547,-3.200692
72.797000,-0.318600,0.069800,-0.05,-0.12,-0.055882,-0.141176,-0.00,-1.53,-0.173010,-1.903114
72.830000,-0.320600,0.063900,-0.05,-0.14,-0.048529,-0.167647,0.11,0.00,0.605536,0.346021
72.863000,-0.321900,0.058400,-0.04,-0.11,-0.033824,-0.126471,0.23,1.21,0.259516,2.076125
72.897000,-0.322900,0.055300,-0.03,-0.05,-0.027941,-0.044118,0.27,1.75,0.086505,2.768166
72.930000,-0.323800,0.055400,-0.02,0.02,-0.022059,0.036765,0.25,1.54,0.259516,1.989619
72.963000,-0.324400,0.057800,-0.01,0.07,-0.010294,0.082353,0.18,0.85,0.432526,0.692042
72.997000,-0.324500,0.061000,-0.01,0.08,-0.001471,0.088235,0.05,0.07,0.086505,-0.346021
73.030000,-0.324500,0.063800,-0.01,0.07,-0.002941,0.067647,-0.13,-0.52,-0.173010,-0.865052
73.063000,-0.324700,0.065600,-0.02,0.04,-0.011765,0.039706,-0.25,-0.83,-0.346021,-0.778547
73.097000,-0.325300,0.066500,-0.03,0.01,-0.026471,0.007353,-0.19,-0.86,-0.519031,-1.124567
73.130000,-0.326500,0.066100,-0.03,-0.02,-0.041176,-0.029412,0.04,-0.64,-0.346021,-1.038062
73.163000,-0.328100,0.064500,-0.03,-0.04,-0.035294,-0.052941,0.29,-0.23,0.692042,-0.346021
73.197000,-0.328900,0.062500,-0.01,-0.04,-0.005882,-0.047059,0.38,0.18,1.038062,0.692042
73.230000,-0.328500,0.061300,0.01,-0.03,0.014706,-0.023529,0.26,0.43,0.173010,0.692042
73.264000,-0.327900,0.060900,0.01,-0.01,0.013235,-0.002941,0.05,0.47,-0.259516,0.519031
73.297000,-0.327600,0.061100,0.01,0.01,0.005882,0.010294,-0.09,0.38,-0.173010,0.259516
73.330000,-0.327500,0.061600,0.00,0.02,-0.001471,0.017647,-0.08,0.27,-0.259516,0.173010
73.363000,-0.327700,0.062300,-0.00,0.03,-0.004412,0.026471,0.00,0.20,0.086505,0.346021
73.397000,-0.327800,0.063400,0.00,0.03,0.001471,0.032353,0.07,0.21,0.259516,0.000000
73.430000,-0.327600,0.064500,0.00,0.04,0.007353,0.030882,0.10,0.34,0.086505,-0.086505
73.463000,-0.327300,0.065500,0.01,0.05,0.007353,0.041176,0.10,0.48,-0.086505,0.692042
73.497000,-0.327100,0.067300,0.01,0.07,0.010294,0.072059,0.08,0.52,0.259516,1.124567
73.530000,-0.326600,0.070400,0.01,0.09,0.017647,0.098529,0.03,0.39,0.173010,0.432526
73.564000,-0.325900,0.074000,0.01,0.10,0.016176,0.102941,-0.01,0.10,-0.259516,-0.173010
73.597000,-0.325500,0.077400,0.01,0.10,0.010294,0.098529,-0.03,-0.24,-0.086505,-0.086505
73.630000,-0.325200,0.080700,0.01,0.08,0.008824,0.089706,-0.04,-0.52,0.000000,-0.432526
73.664000,-0.324900,0.083500,0.01,0.06,0.011765,0.061765,-0.07,-0.66,0.173010,-1.211073
73.697000,-0.324400,0.084900,0.01,0.04,0.011765,0.027941,-0.13,-0.67,-0.173010,-0.778547
73.730000,-0.324100,0.085400,0.00,0.01,0.002941,0.011765,-0.17,-0.57,-0.346021,-0.173010
73.764000,-0.324200,0.085700,-0.00,-0.00,-0.007353,0.001471,-0.15,-0.42,-0.259516,-0.432526
73.797000,-0.324600,0.085500,-0.01,-0.01,-0.010294,-0.016176,-0.12,-0.27,0.086505,-0.605536
73.830000,-0.324900,0.084600,-0.01,-0.02,-0.007353,-0.027941,-0.13,-0.15,0.086505,-0.086505
73.864000,-0.325100,0.083600,-0.02,-0.02,-0.013235,-0.020588,-0.14,-0.18,-0.432526,0.519031
73.897000,-0.325800,0.083200,-0.02,-0.03,-0.026471,-0.014706,-0.09,-0.38,-0.346021,-0.173010
73.930000,-0.326900,0.082600,-0.03,-0.04,-0.030882,-0.036765,0.05,-0.63,0.086505,-1.124567
73.964000,-0.327900,0.080700,-0.02,-0.07,-0.020588,-0.075000,0.17,-0.73,0.519031,-1.124567
73.997000,-0.328300,0.077500,-0.01,-0.10,-0.005882,-0.105882,0.17,-0.55,0.346021,-0.692042
74.030000,-0.328300,0.073500,-0.00,-0.11,0.000000,-0.119118,0.07,-0.15,0.000000,-0.086505
74.064000,-0.328300,0.069400,-0.01,-0.11,-0.004412,-0.116176,-0.03,0.37,-0.259516,0.259516
74.097000,-0.328600,0.065600,-0.01,-0.09,-0.011765,-0.097059,-0.04,0.90,-0.173010,0.865052
74.130000,-0.329100,0.062800,-0.01,-0.05,-0.013235,-0.057353,0.03,1.31,0.086505,1.470588
74.164000,-0.329500,0.061700,-0.01,0.00,-0.007353,0.001471,0.10,1.39,0.259516,1.989619
74.197000,-0.329600,0.062900,-0.00,0.05,-0.002941,0.064706,0.14,0.97,0.000000,1.730104
74.231000,-0.329700,0.066100,0.00,0.08,0.001471,0.098529,0.12,0.15,0.259516,0.259516
74.264000,-0.329500,0.069600,0.01,0.07,0.010294,0.080882,0.04,-0.74,0.259516,-1.297578
74.297000,-0.329000,0.071600,0.01,0.02,0.010294,0.023529,-0.09,-1.28,-0.259516,-2.076125
74.331000,-0.328800,0.071200,0.00,-0.03,0.002941,-0.041176,-0.23,-1.24,-0.173010,-1.730104
74.364000,-0.328800,0.068800,-0.01,-0.07,-0.007353,-0.086765,-0.31,-0.70,-0.432526,-0.951557
74.397000,-0.329300,0.065300,-0.02,-0.08,-0.023529,-0.097059,-0.25,0.04,-0.519031,0.346021
74.431000,-0.330400,0.062200,-0.03,-0.07,-0.035294,-0.072059,-0.03,0.63,-0.173010,1.124567
74.464000,-0.331700,0.060400,-0.03,-0.03,-0.032353,-0.030882,0.23,0.88,0.346021,1.297578
74.497000,-0.332600,0.060100,-0.01,-0.00,-0.013235,0.004412,0.37,0.81,0.778547,0.778547
74.531000,-0.332600,0.060700,0.00,0.02,0.010294,0.026471,0.29,0.53,0.605536,0.519031
74.564000,-0.331900,0.061900,0.01,0.04,0.017647,0.039706,0.05,0.16,-0.173010,0.259516
74.597000,-0.331400,0.063400,0.01,0.04,0.008824,0.041176,-0.17,-0.22,-0.346021,-0.173010
74.631000,-0.331300,0.064700,-0.00,0.02,-0.004412,0.026471,-0.26,-0.52,-0.432526,-0.692042
74.664000,-0.331700,0.065200,-0.01,-0.00,-0.016176,-0.004412,-0.19,-0.57,-0.259516,-1.124567
74.697000,-0.332400,0.064400,-0.02,-0.03,-0.020588,-0.036765,-0.05,-0.32,0.000000,-0.778547
74.731000,-0.333100,0.062700,-0.02,-0.03,-0.019118,-0.042647,0.13,0.08,0.086505,0.432526
74.764000,-0.333700,0.061500,-0.01,-0.02,-0.013235,-0.019118,0.29,0.37,0.259516,0.951557
74.797000,-0.334000,0.061400,0.00,0.00,0.000000,0.008824,0.37,0.41,0.519031,0.692042
74.831000,-0.333700,0.062100,0.02,0.01,0.022059,0.019118,0.30,0.22,0.778547,-0.086505
74.864000,-0.332500,0.062700,0.03,0.02,0.033824,0.016176,0.14,-0.06,-0.086505,-0.086505
74.898000,-0.331400,0.063200,0.03,0.01,0.026471,0.013235,0.02,-0.44,-0.346021,-0.086505
74.931000,-0.330700,0.063600,0.02,-0.01,0.017647,0.002941,-0.00,-1.01,-0.173010,-0.519031
74.964000,-0.330200,0.063400,0.02,-0.05,0.022059,-0.032353,0.04,-1.79,0.432526,-1.557093
74.998000,-0.329200,0.061400,0.03,-0.12,0.032353,-0.107353,0.05,-2.60,0.173010,-2.854671
75.031000,-0.328000,0.056100,0.03,-0.23,0.032353,-0.219118,-0.04,-3.16,-0.173010,-3.719723
75.064000,-0.327000,0.046500,0.03,-0.35,0.027941,-0.345588,-0.16,-3.35,-0.086505,-3.719723
75.097000,-0.326100,0.032600,0.02,-0.46,0.020588,-0.457353,-0.18,-3.24,-0.346021,-2.854671
75.131000,-0.325600,0.015400,0.01,-0.56,0.005882,-0.552941,-0.00,-2.99,-0.519031,-2.768166
75.164000,-0.325700,-0.005000,0.01,-0.66,0.000000,-0.648529,0.29,-2.63,0.173010,-2.854671
75.198000,-0.325600,-0.028700,0.03,-0.74,0.025000,-0.738235,0.52,-2.06,1.297578,-2.422145
75.231000,-0.324000,-0.055200,0.06,-0.80,0.063235,-0.804412,0.49,-1.24,0.951557,-1.470588
75.264000,-0.321300,-0.083400,0.07,-0.83,0.079412,-0.830882,0.17,-0.36,0.000000,-0.086505
75.298000,-0.318600,-0.111700,0.07,-0.82,0.072059,-0.813235,-0.27,0.30,-0.432526,1.124567
75.331000,-0.316400,-0.138700,0.05,-0.80,0.052941,-0.779412,-0.52,0.59,-0.692042,0.865052
75.364000,-0.315000,-0.164700,0.02,-0.77,0.022059,-0.757353,-0.41,0.52,-1.124567,0.432526
75.398000,-0.314900,-0.190200,0.01,-0.76,-0.002941,-0.741176,0.04,0.21,-0.346021,0.519031
75.431000,-0.315200,-0.215100,0.03,-0.76,0.011765,-0.733824,0.52,-0.11,1.211073,-0.086505
75.464000,-0.314100,-0.240100,0.06,-0.77,0.058824,-0.754412,0.66,-0.22,1.557093,-1.124567
75.498000,-0.311200,-0.266400,0.08,-0.78,0.098529,-0.780882,0.28,-0.04,0.778547,-0.432526
75.531000,-0.307400,-0.293200,0.08,-0.78,0.098529,-0.773529,-0.36,0.31,-0.778547,0.865052
75.565000,-0.304500,-0.319000,0.05,-0.76,0.057353,-0.744118,-0.76,0.57,-1.643599,0.865052
75.598000,-0.303500,-0.343800,0.02,-0.73,0.004412,-0.714706,-0.66,0.58,-1.470588,0.865052
75.631000,-0.304200,-0.367600,0.00,-0.72,-0.016176,-0.695588,-0.28,0.44,0.259516,0.259516
75.665000,-0.304600,-0.391100,0.00,-0.71,0.005882,-0.694118,-0.04,0.33,1.038062,-0.173010
75.698000,-0.303800,-0.414800,0.01,-0.70,0.023529,-0.689706,-0.15,0.34,0.000000,0.432526
75.731000,-0.303000,-0.438000,-0.00,-0.69,0.007353,-0.672059,-0.44,0.46,-0.951557,0.605536
75.764000,-0.303300,-0.460500,-0.03,-0.67,-0.027941,-0.657353,-0.53,0.60,-1.124567,0.259516
75.798000,-0.304900,-0.482700,-0.05,-0.64,-0.057353,-0.636765,-0.23,0.71,-0.605536,0.951557
75.831000,-0.307200,-0.503800,-0.05,-0.62,-0.058824,-0.605882,0.27,0.95,0.519031,0.865052
75.865000,-0.308900,-0.523900,-0.03,-0.59,-0.027941,-0.585294,0.69,1.51,1.297578,0.346021
75.898000,-0.309100,-0.543600,0.01,-0.53,0.008824,-0.545588,0.87,2.36,0.865052,1.989619
75.931000,-0.308300,-0.561000,0.04,-0.44,0.036765,-0.441176,0.80,3.36,0.778547,4.152249
75.965000,-0.306600,-0.573600,0.06,-0.30,0.063235,-0.301471,0.55,4.26,0.778547,4.065744
75.998000,-0.304000,-0.581500,0.08,-0.14,0.085294,-0.151471,0.18,4.81,0.519031,4.757785
76.031000,-0.300800,-0.583900,0.08,0.03,0.083824,0.026471,-0.18,4.92,-0.605536,5.709343
76.065000,-0.298300,-0.579700,0.06,0.19,0.057353,0.202941,-0.43,4.63,-0.951557,4.671280
76.098000,-0.296900,-0.570100,0.04,0.34,0.036765,0.347059,-0.50,3.95,-0.259516,3.806228
76.131000,-0.295800,-0.556100,0.02,0.46,0.026471,0.467647,-0.37,2.98,-0.346021,3.287197
76.165000,-0.295100,-0.538300,0.01,0.54,0.010294,0.554412,-0.11,1.95,-0.605536,1.816609
76.198000,-0.295100,-0.518400,0.02,0.59,0.004412,0.591176,0.12,1.08,0.259516,0.346021
76.231000,-0.294800,-0.498100,0.03,0.61,0.026471,0.598529,0.22,0.48,1.038062,0.086505
76.265000,-0.293300,-0.477700,0.04,0.61,0.047059,0.602941,0.14,0.16,0.173010,0.173010
76.298000,-0.291600,-0.457100,0.04,0.62,0.039706,0.607353,-0.04,-0.01,-0.605536,0.086505
76.331000,-0.290600,-0.436400,0.03,0.62,0.026471,0.605882,-0.19,-0.15,-0.173010,-0.173010
76.365000,-0.289800,-0.415900,0.02,0.61,0.022059,0.595588,-0.24,-0.20,-0.086505,-0.432526
76.398000,-0.289100,-0.395900,0.02,0.60,0.017647,0.580882,-0.23,-0.14,-0.173010,-0.432526
76.431000,-0.288600,-0.376400,0.01,0.60,0.005882,0.579412,-0.22,-0.05,-0.519031,0.346021
76.465000,-0.288700,-0.356500,0.00,0.60,-0.001471,0.589706,-0.22,0.01,0.086505,0.259516
76.498000,-0.288700,-0.336300,-0.01,0.60,-0.004412,0.589706,-0.22,0.02,-0.259516,-0.259516
76.532000,-0.289000,-0.316400,-0.01,0.60,-0.014706,0.582353,-0.20,0.04,-0.346021,-0.173010
76.565000,-0.289700,-0.296700,-0.02,0.60,-0.023529,0.582353,-0.16,0.16,-0.173010,0.173010
76.598000,-0.290600,-0.276800,-0.03,0.61,-0.027941,0.591176,-0.11,0.32,-0.086505,0.346021
76.632000,-0.291600,-0.256500,-0.03,0.62,-0.027941,0.607353,-0.11,0.43,0.086505,0.605536
76.665000,-0.292500,-0.235500,-0.03,0.64,-0.025000,0.627941,-0.24,0.46,0.086505,0.605536
76.698000,-0.293300,-0.213800,-0.04,0.65,-0.032353,0.641176,-0.39,0.57,-0.519031,0.173010
76.732000,-0.294700,-0.191900,-0.06,0.67,-0.060294,0.648529,-0.44,0.94,-1.124567,0.259516
76.765000,-0.297400,-0.169700,-0.08,0.71,-0.082353,0.675000,-0.32,1.55,-0.173010,1.297578
76.798000,-0.300300,-0.146000,-0.08,0.77,-0.083824,0.744118,-0.06,2.15,0.086505,2.768166
76.832000,-0.303100,-0.119100,-0.08,0.86,-0.080882,0.844118,0.25,2.36,0.086505,3.114187
76.865000,-0.305800,-0.088600,-0.07,0.95,-0.072059,0.939706,0.48,1.83,0.432526,2.508651
76.898000,-0.308000,-0.055200,-0.04,1.00,-0.044118,1.004412,0.52,0.45,1.211073,1.297578
76.932000,-0.308800,-0.020300,-0.02,0.99,-0.014706,1.010294,0.34,-1.54,0.519031,-0.951557
76.965000,-0.309000,0.013500,-0.02,0.90,-0.008824,0.920588,0.04,-3.59,-0.173010,-4.325260
76.998000,-0.309400,0.042300,-0.03,0.74,-0.023529,0.736765,-0.18,-5.13,-0.692042,-6.487889
77.032000,-0.310600,0.063600,-0.04,0.54,-0.041176,0.520588,-0.17,-5.87,-0.346021,-6.228374
77.065000,-0.312200,0.077700,-0.04,0.33,-0.045588,0.320588,-0.04,-5.87,0.086505,-5.536332
77.098000,-0.313700,0.085400,-0.04,0.14,-0.035294,0.130882,0.04,-5.30,0.519031,-5.622837
77.132000,-0.314600,0.086600,-0.03,-0.03,-0.026471,-0.048529,0.00,-4.21,-0.000000,-4.930796
77.165000,-0.315500,0.082100,-0.04,-0.16,-0.035294,-0.183824,-0.07,-2.61,-0.519031,-3.027682
77.199000,-0.317000,0.074100,-0.04,-0.22,-0.044118,-0.244118,-0.10,-0.67,0.000000,-0.519031
77.232000,-0.318500,0.065500,-0.04,-0.20,-0.042647,-0.222059,-0.03,1.15,0.086505,1.816609
77.265000,-0.319900,0.059000,-0.04,-0.12,-0.042647,-0.133824,0.15,2.33,-0.086505,3.373702
77.299000,-0.321400,0.056400,-0.04,-0.02,-0.042647,-0.013235,0.40,2.54,0.086505,3.719723
77.332000,-0.322800,0.058100,-0.02,0.07,-0.025000,0.088235,0.61,1.84,0.951557,2.249135
77.365000,-0.323100,0.062400,0.01,0.11,0.011765,0.133824,0.66,0.62,1.211073,0.432526
77.398000,-0.322000,0.067200,0.03,0.11,0.039706,0.122059,0.49,-0.59,0.432526,-1.124567
77.432000,-0.320400,0.070700,0.04,0.06,0.048529,0.067647,0.15,-1.36,0.086505,-2.076125
77.465000,-0.318700,0.071800,0.04,0.00,0.045588,-0.001471,-0.15,-1.54,-0.259516,-1.989619
77.499000,-0.317300,0.070600,0.03,-0.05,0.030882,-0.058824,-0.27,-1.22,-0.605536,-1.384083
77.532000,-0.316600,0.067800,0.02,-0.08,0.013235,-0.094118,-0.15,-0.60,-0.432526,-0.692042
77.565000,-0.316400,0.064200,0.02,-0.09,0.007353,-0.102941,0.09,0.10,0.086505,0.173010
77.599000,-0.316100,0.060800,0.02,-0.08,0.020588,-0.082353,0.31,0.69,0.692042,1.038062
77.632000,-0.315000,0.058600,0.04,-0.04,0.042647,-0.042647,0.42,1.05,0.605536,1.297578
77.665000,-0.313200,0.057900,0.06,0.00,0.057353,0.002941,0.41,1.06,0.259516,1.384083
77.699000,-0.311100,0.058800,0.07,0.04,0.066176,0.047059,0.31,0.70,0.259516,1.211073
77.732000,-0.308700,0.061100,0.08,0.06,0.077941,0.069118,0.17,0.07,0.432526,0.086505
77.765000,-0.305800,0.063500,0.08,0.04,0.085294,0.054412,0.05,-0.57,-0.000000,-0.951557
77.799000,-0.302900,0.064800,0.08,0.01,0.077941,0.011765,0.03,-0.95,-0.432526,-1.557093
77.832000,-0.300500,0.064300,0.08,-0.03,0.069118,-0.035294,0.14,-0.96,-0.086505,-1.211073
77.865000,-0.298200,0.062400,0.09,-0.06,0.079412,-0.064706,0.28,-0.68,0.692042,-0.519031
77.899000,-0.295100,0.059900,0.10,-0.08,0.102941,-0.079412,0.35,-0.25,0.692042,-0.346021
77.932000,-0.291200,0.057000,0.11,-0.08,0.114706,-0.083824,0.34,0.18,0.000000,0.086505
77.965000,-0.287300,0.054200,0.12,-0.06,0.116176,-0.067647,0.32,0.45,0.086505,0.865052
77.999000,-0.283300,0.052400,0.13,-0.04,0.126471,-0.033824,0.36,0.44,0.519031,1.124567
78.032000,-0.278700,0.051900,0.15,-0.02,0.144118,-0.013235,0.42,0.17,0.519031,0.086505
78.065000,-0.273500,0.051500,0.16,-0.03,0.158824,-0.020588,0.48,-0.17,0.346021,-0.519031
78.099000,-0.267900,0.050500,0.18,-0.04,0.172059,-0.041176,0.56,-0.35,0.432526,-0.692042
78.132000,-0.261800,0.048700,0.20,-0.06,0.188235,-0.061765,0.72,-0.32,0.519031,-0.519031
78.166000,-0.255100,0.046300,0.22,-0.06,0.213235,-0.067647,0.96,-0.21,0.951557,0.173010
78.199000,-0.247300,0.044100,0.26,-0.07,0.251471,-0.061765,1.17,-0.14,1.297578,0.173010
78.232000,-0.238000,0.042100,0.30,-0.07,0.298529,-0.067647,1.20,-0.13,1.470588,-0.519031
78.266000,-0.227000,0.039500,0.35,-0.08,0.345588,-0.079412,1.02,-0.12,1.297578,-0.173010
78.299000,-0.214500,0.036700,0.38,-0.08,0.377941,-0.080882,0.69,-0.03,0.605536,0.086505
78.332000,-0.201300,0.034000,0.39,-0.08,0.388235,-0.080882,0.36,0.21,-0.000000,-0.086505
78.365000,-0.188100,0.031200,0.40,-0.07,0.388235,-0.079412,0.13,0.57,0.000000,0.173010
78.399000,-0.174900,0.028600,0.40,-0.05,0.389706,-0.055882,-0.02,0.94,0.086505,1.211073
78.432000,-0.161600,0.027400,0.40,-0.00,0.392647,-0.005882,-0.19,1.15,0.086505,1.730104
78.466000,-0.148200,0.028200,0.39,0.04,0.386765,0.047059,-0.43,1.08,-0.432526,1.384083
78.499000,-0.135300,0.030600,0.37,0.07,0.364706,0.077941,-0.63,0.79,-0.865052,0.432526
78.532000,-0.123400,0.033500,0.34,0.09,0.332353,0.089706,-0.61,0.44,-1.038062,0.259516
78.566000,-0.112700,0.036700,0.32,0.10,0.304412,0.100000,-0.30,0.10,-0.605536,0.346021
78.599000,-0.102700,0.040300,0.32,0.10,0.298529,0.105882,0.17,-0.29,0.259516,-0.000000
78.632000,-0.092400,0.043900,0.33,0.08,0.320588,0.092647,0.54,-0.77,1.038062,-0.778547
78.666000,-0.080900,0.046600,0.36,0.05,0.357353,0.054412,0.70,-1.19,1.124567,-1.470588
78.699000,-0.068100,0.047600,0.38,-0.00,0.380882,-0.001471,0.68,-1.34,0.259516,-1.816609
78.732000,-0.055000,0.046500,0.41,-0.05,0.391176,-0.058824,0.55,-1.13,0.346021,-1.557093
78.766000,-0.041500,0.043600,0.42,-0.08,0.416176,-0.092647,0.30,-0.72,1.124567,-0.432526
78.799000,-0.026700,0.040200,0.43,-0.10,0.435294,-0.098529,-0.06,-0.29,-0.000000,0.086505
78.832000,-0.011900,0.036900,0.42,-0.10,0.417647,-0.097059,-0.72,0.01,-1.038062,-0.000000
78.866000,0.001700,0.033600,0.39,-0.09,0.391176,-0.094118,-1.89,0.18,-0.519031,0.173010
78.899000,0.014700,0.030500,0.31,-0.09,0.344118,-0.085294,-3.44,0.29,-2.249135,0.346021
78.933000,0.025100,0.027800,0.16,-0.07,0.198529,-0.072059,-4.74,0.38,-6.314879,0.432526
78.966000,0.028200,0.025600,-0.03,-0.06,-0.045588,-0.060294,-4.98,0.46,-8.044983,0.259516
78.999000,0.022000,0.023700,-0.21,-0.04,-0.258824,-0.045588,-3.89,0.51,-4.498270,0.605536
79.033000,0.010600,0.022500,-0.31,-0.02,-0.341176,-0.022059,-2.04,0.50,-0.346021,0.778547
79.066000,-0.001200,0.022200,-0.33,-0.01,-0.333824,-0.002941,-0.34,0.45,0.778547,0.346021
79.099000,-0.012100,0.022300,-0.31,0.01,-0.311765,0.005882,0.70,0.37,0.519031,0.173010
79.132000,-0.022400,0.022600,-0.28,0.02,-0.280882,0.014706,1.14,0.27,1.297578,0.346021
79.166000,-0.031200,0.023300,-0.23,0.02,-0.227941,0.026471,1.23,0.16,1.816609,0.346021
79.199000,-0.037900,0.024400,-0.19,0.03,-0.177941,0.032353,1.16,0.05,1.124567,0.000000
79.233000,-0.043300,0.025500,-0.16,0.03,-0.150000,0.026471,1.08,-0.02,0.519031,-0.346021
79.266000,-0.048100,0.026200,-0.12,0.02,-0.127941,0.019118,1.16,-0.07,0.778547,-0.086505
79.299000,-0.052000,0.026800,-0.08,0.02,-0.089706,0.023529,1.36,-0.18,1.470588,0.346021
79.333000,-0.054200,0.027800,-0.03,0.02,-0.029412,0.025000,1.44,-0.40,2.076125,-0.259516
79.366000,-0.054000,0.028500,0.02,-0.00,0.030882,0.002941,1.30,-0.66,1.470588,-1.038062
79.399000,-0.052100,0.028000,0.06,-0.03,0.067647,-0.030882,1.08,-0.85,0.692042,-0.951557
79.433000,-0.049400,0.026400,0.09,-0.06,0.082353,-0.061765,1.01,-0.87,0.173010,-0.865052
79.466000,-0.046500,0.023800,0.12,-0.09,0.105882,-0.091176,1.11,-0.62,1.211073,-0.865052
79.499000,-0.042200,0.020200,0.16,-0.11,0.158824,-0.119118,1.12,-0.03,1.903114,-0.778547
79.533000,-0.035700,0.015700,0.21,-0.10,0.216176,-0.123529,0.76,0.78,1.470588,0.519031
79.566000,-0.027500,0.011800,0.22,-0.06,0.239706,-0.072059,0.10,1.36,-0.086505,2.508651
79.600000,-0.019400,0.010800,0.21,0.01,0.214706,0.020588,-0.45,1.21,-1.384083,2.941176
79.633000,-0.012900,0.013200,0.18,0.05,0.169118,0.082353,-0.50,0.35,-1.297578,0.692042
79.666000,-0.007900,0.016400,0.16,0.03,0.142647,0.054412,-0.11,-0.51,-0.259516,-2.335640
79.699000,-0.003200,0.016900,0.17,-0.01,0.158824,-0.029412,0.21,-0.70,1.211073,-2.595156
79.733000,0.002900,0.014400,0.20,-0.03,0.204412,-0.066176,-0.12,-0.27,1.470588,0.432526
79.766000,0.010700,0.012400,0.19,-0.02,0.219118,-0.023529,-1.03,0.17,-0.605536,2.076125
79.799000,0.017800,0.012800,0.13,-0.01,0.144118,0.017647,-1.86,0.20,-3.806228,0.346021
79.833000,0.020500,0.013600,0.04,-0.00,0.019118,0.000000,-1.96,-0.01,-3.546713,-1.384083
79.866000,0.019100,0.012800,-0.03,-0.02,-0.057353,-0.029412,-1.26,-0.09,-0.951557,-0.346021
79.900000,0.016600,0.011600,-0.05,-0.02,-0.060294,-0.023529,-0.23,0.09,0.778547,0.692042
79.933000,0.015000,0.011200,-0.03,-0.01,-0.033824,-0.007353,0.55,0.31,0.778547,0.259516
79.966000,0.014300,0.011100,-0.00,0.01,-0.004412,0.005882,0.80,0.29,0.951557,0.519031
80.000000,0.014700,0.011600,0.03,0.02,0.035294,0.023529,0.56,0.01,1.384083,0.519031
80.033000,0.016700,0.012700,0.04,0.01,0.060294,0.023529,0.09,-0.31,0.086505,-0.519031
80.066000,0.018800,0.013200,0.04,-0.01,0.042647,-0.007353,-0.30,-0.44,-1.124567,-1.297578
80.100000,0.019600,0.012200,0.01,-0.03,0.004412,-0.041176,-0.38,-0.28,-1.124567,-0.692042
80.133000,0.019100,0.010400,0.00,-0.03,-0.011765,-0.039706,-0.17,0.04,0.173010,0.778547
80.166000,0.018800,0.009500,0.00,-0.02,0.001471,-0.016176,0.07,0.26,0.605536,0.605536
80.200000,0.019200,0.009300,0.01,-0.01,0.017647,-0.004412,0.11,0.27,0.346021,0.086505
80.233000,0.020000,0.009200,0.02,-0.00,0.020588,0.000000,-0.04,0.13,-0.173010,0.173010
80.266000,0.020600,0.009300,0.01,-0.00,0.010294,0.002941,-0.18,0.03,-0.432526,-0.000000
80.300000,0.020700,0.009400,-0.00,-0.00,-0.004412,-0.002941,-0.20,0.03,-0.432526,-0.346021
80.333000,0.020300,0.009100,-0.01,0.00,-0.010294,-0.002941,-0.13,0.03,0.086505,0.346021
80.366000,0.020000,0.009200,-0.01,0.00,-0.007353,0.007353,-0.07,-0.01,0.086505,0.259516
80.400000,0.019800,0.009600,-0.01,0.00,-0.007353,0.007353,-0.07,-0.07,-0.086505,-0.259516
80.433000,0.019500,0.009700,-0.01,-0.00,-0.011765,-0.005882,-0.06,-0.10,-0.173010,-0.519031
80.466000,0.019000,0.009200,-0.02,-0.01,-0.017647,-0.011765,-0.00,-0.09,-0.173010,0.173010
80.500000,0.018300,0.008900,-0.01,-0.01,-0.017647,-0.005882,0.09,-0.03,0.173010,0.173010
80.533000,0.017800,0.008800,-0.01,-0.01,-0.008824,-0.007353,0.19,0.04,0.346021,-0.259516
80.567000,0.017700,0.008400,-0.00,-0.01,0.001471,-0.011765,0.23,0.12,0.259516,0.000000
80.600000,0.017900,0.008000,0.01,-0.00,0.007353,-0.004412,0.18,0.20,0.086505,0.432526
80.633000,0.018200,0.008100,0.01,0.01,0.014706,0.010294,0.03,0.25,0.346021,0.432526
80.667000,0.018900,0.008700,0.01,0.02,0.017647,0.019118,-0.13,0.19,-0.173010,0.086505
