Time,PosX,PosY,RawVelX,RawVelY,CalcVelX,CalcVelY,RawAccX,RawAccY,CalcAccX,CalcAccY
35.881000,-0.000000,0.000000,0.03,0.18,-0.001716,0.153431,-0.64,-1.46,-1.117359,-1.585928
35.915000,0.002200,0.006700,0.03,0.18,-0.001716,0.153431,-0.64,-1.46,-1.117359,-1.585928
35.948000,0.003800,0.013600,0.03,0.18,-0.001716,0.153431,-0.64,-1.46,-1.117359,-1.585928
35.981000,0.004400,0.019600,0.00,0.14,-0.001716,0.153431,-0.58,-1.62,-1.117359,-1.585928
36.015000,0.003800,0.023800,-0.01,0.08,-0.025245,0.092892,-0.42,-2.05,-0.223472,-1.967993
36.048000,0.002900,0.025700,-0.02,0.00,-0.025490,0.012990,-0.18,-2.40,0.129758,-2.717705
36.081000,0.002100,0.024500,-0.03,-0.09,-0.025000,-0.086029,0.04,-2.29,-0.115340,-3.006055
36.115000,0.001200,0.019900,-0.02,-0.16,-0.026716,-0.183333,0.19,-1.59,0.064879,-2.537486
36.148000,0.000400,0.012500,-0.01,-0.20,-0.016176,-0.237255,0.26,-0.38,0.547866,-0.519031
36.181000,0.000200,0.004500,-0.00,-0.19,0.006373,-0.221324,0.22,0.95,0.677624,1.420127
36.215000,0.000700,-0.001900,0.01,-0.13,0.014216,-0.144608,0.07,1.83,-0.230681,2.955594
36.248000,0.001000,-0.005000,0.00,-0.05,0.004412,-0.034069,-0.10,1.87,-0.273933,3.279988
36.281000,0.001000,-0.004500,-0.00,0.01,-0.002696,0.048775,-0.18,1.19,-0.151384,1.405709
36.315000,0.000800,-0.002400,-0.01,0.04,-0.012255,0.058824,-0.14,0.29,-0.389273,-0.720877
36.348000,0.000200,-0.001000,-0.01,0.02,-0.019363,0.020098,-0.03,-0.33,0.007209,-1.326413
36.381000,-0.000400,-0.001000,-0.01,-0.00,-0.013480,-0.010294,0.06,-0.47,0.295559,-0.389273
36.415000,-0.000700,-0.001500,-0.01,-0.02,-0.006863,-0.018873,0.13,-0.31,0.072088,-0.165802
36.448000,-0.000900,-0.002200,-0.00,-0.02,-0.004657,-0.021078,0.17,-0.08,0.079296,0.014418
36.481000,-0.001000,-0.002900,0.00,-0.02,-0.000980,-0.021324,0.17,0.10,0.158593,-0.021626
36.515000,-0.000900,-0.003600,0.01,-0.01,0.010784,-0.017402,0.12,0.23,0.490196,0.266724
36.548000,-0.000300,-0.004000,0.01,-0.00,0.020098,-0.005147,0.03,0.27,0.000000,0.439735
36.582000,0.000300,-0.003900,0.01,0.01,0.010049,0.013235,-0.04,0.18,-0.511822,0.576701
36.615000,0.000400,-0.003200,0.01,0.01,0.002696,0.021814,-0.12,0.02,0.122549,-0.108131
36.648000,0.000600,-0.002600,0.00,0.01,0.010784,0.011275,-0.20,-0.09,0.245098,-0.461361
36.681000,0.001000,-0.002500,-0.00,0.00,0.003922,-0.006863,-0.21,-0.03,-0.663206,-0.504614
36.715000,0.000700,-0.002900,-0.01,0.00,-0.023039,-0.007598,-0.11,0.11,-0.778547,0.482987
36.748000,-0.000400,-0.002800,-0.02,0.01,-0.032843,0.015931,0.09,0.15,0.273933,0.771338
36.782000,-0.001200,-0.001900,-0.01,0.02,-0.005882,0.029657,0.22,0.02,1.167820,-0.021626
36.815000,-0.000800,-0.001000,0.01,0.02,0.020343,0.020833,0.14,-0.18,0.252307,-0.454152
36.848000,-0.000100,-0.000600,0.01,0.00,0.015686,0.000735,-0.06,-0.29,-0.475779,-0.655998
36.882000,0.000100,-0.000900,-0.00,-0.01,-0.005147,-0.013235,-0.17,-0.20,-0.655998,-0.144175
36.915000,-0.000400,-0.001400,-0.01,-0.01,-0.020588,-0.017647,-0.08,0.02,-0.187428,-0.115340
36.948000,-0.001100,-0.002000,-0.01,-0.01,-0.014951,-0.014216,0.08,0.20,0.482987,0.346021
36.982000,-0.001300,-0.002200,-0.00,0.01,0.002451,0.008333,0.11,0.20,0.461361,0.879469
37.015000,-0.001000,-0.001500,0.00,0.01,0.012990,0.024265,-0.02,0.05,0.108131,-0.021626
37.048000,-0.000600,-0.000800,-0.00,0.01,0.005147,0.012990,-0.16,-0.13,-0.555075,-0.569493
37.082000,-0.000800,-0.000700,-0.01,-0.00,-0.019853,-0.005882,-0.13,-0.18,-0.785755,-0.461361
37.115000,-0.001800,-0.001100,-0.02,-0.01,-0.028922,-0.013971,0.06,-0.11,0.302768,0.007209
37.148000,-0.002500,-0.001500,-0.01,-0.01,-0.009314,-0.005637,0.24,-0.06,0.749712,0.410900
37.182000,-0.002400,-0.001500,0.01,-0.01,0.012255,0.000490,0.26,-0.10,0.446943,-0.100923
37.215000,-0.001800,-0.001600,0.01,-0.01,0.019363,-0.007843,0.13,-0.19,-0.021626,-0.360438
37.249000,-0.001200,-0.002100,0.01,-0.02,0.015196,-0.022549,-0.03,-0.23,-0.187428,-0.461361
37.282000,-0.000800,-0.003100,0.01,-0.03,0.008824,-0.033333,-0.11,-0.15,-0.173010,-0.158593
37.315000,-0.000600,-0.004300,0.00,-0.03,0.002206,-0.038235,-0.10,0.04,-0.194637,-0.115340
37.349000,-0.000600,-0.005600,0.00,-0.03,0.000980,-0.034314,-0.06,0.22,0.115340,0.360438
37.382000,-0.000500,-0.006500,0.00,-0.02,0.003676,-0.016422,-0.01,0.30,0.007209,0.641580
37.415000,-0.000400,-0.006700,0.00,-0.00,-0.000490,0.003922,0.05,0.27,-0.216263,0.475779
37.448000,-0.000500,-0.006400,0.00,0.00,-0.001716,0.005147,0.09,0.21,0.180219,-0.353230
37.482000,-0.000400,-0.006400,0.01,0.01,0.011029,0.000980,0.09,0.16,0.497405,0.187428
37.515000,0.000200,-0.006200,0.01,0.01,0.018137,0.013235,0.04,0.11,-0.115340,0.475779
37.549000,0.000700,-0.005500,0.01,0.02,0.010049,0.026225,-0.02,0.04,-0.295559,0.209054
37.582000,0.000900,-0.004600,0.01,0.02,0.004657,0.018382,-0.06,-0.03,0.007209,-0.612745
37.615000,0.001100,-0.004300,0.01,0.01,0.009314,0.005392,-0.10,-0.05,0.216263,-0.072088
37.649000,0.001500,-0.004100,0.00,0.01,0.010784,0.008088,-0.15,-0.04,-0.173010,0.194637
37.682000,0.001700,-0.003700,-0.00,0.01,-0.002696,0.015931,-0.18,-0.05,-0.569493,0.209054
37.715000,0.001300,-0.003100,-0.01,0.01,-0.018382,0.014706,-0.11,-0.06,-0.281142,-0.288351
37.749000,0.000600,-0.002800,-0.01,0.01,-0.017647,0.001716,0.03,-0.03,0.302768,-0.396482
37.782000,0.000200,-0.002900,-0.01,0.01,-0.007353,-0.002206,0.14,0.05,0.259516,0.194637
37.815000,0.000100,-0.002800,-0.00,0.01,0.001961,0.010294,0.11,0.06,0.273933,0.475779
37.849000,0.000300,-0.002200,0.00,0.01,0.009314,0.023529,-0.03,-0.03,0.115340,0.216263
37.882000,0.000600,-0.001400,-0.00,0.01,0.003186,0.014706,-0.16,-0.14,-0.468570,-0.692042
37.915000,0.000400,-0.001300,-0.01,0.00,-0.015931,-0.004657,-0.15,-0.15,-0.569493,-0.353230
37.949000,-0.000400,-0.001600,-0.02,-0.00,-0.026471,-0.010784,-0.03,-0.06,0.000000,0.000000
37.982000,-0.001200,-0.001900,-0.01,-0.00,-0.015441,-0.002941,0.10,0.03,0.583910,0.403691
38.015000,-0.001400,-0.001800,-0.01,0.00,0.000490,0.003922,0.18,0.06,0.273933,-0.028835
38.049000,-0.001300,-0.001700,-0.00,0.00,0.000000,0.002941,0.19,-0.01,-0.245098,0.000000
38.082000,-0.001400,-0.001600,0.01,0.00,-0.000245,0.003676,0.15,-0.12,0.281142,0.021626
38.115000,-0.001200,-0.001500,0.01,-0.01,0.014706,-0.000000,0.10,-0.21,0.504614,-0.259516
38.149000,-0.000500,-0.001700,0.01,-0.02,0.017647,-0.014706,0.05,-0.21,-0.331603,-0.562284
38.182000,-0.000100,-0.002500,0.01,-0.02,0.009314,-0.030392,-0.02,-0.12,-0.086505,-0.288351
38.216000,0.000200,-0.003600,0.01,-0.02,0.010294,-0.027696,-0.09,0.00,0.115340,0.410900
38.249000,0.000600,-0.004300,0.01,-0.02,0.011765,-0.016422,-0.13,0.11,-0.072088,0.180219
38.282000,0.000900,-0.004800,0.00,-0.02,0.001471,-0.016422,-0.11,0.17,-0.490196,-0.136967
38.316000,0.000700,-0.005400,-0.00,-0.01,-0.009559,-0.014951,-0.04,0.21,-0.093714,0.266724
38.349000,0.000400,-0.005700,-0.00,-0.00,-0.003431,0.000490,0.05,0.18,0.403691,0.576701
38.382000,0.000500,-0.005400,0.00,0.01,0.005147,0.012255,0.10,0.08,0.064879,0.072088
38.416000,0.000700,-0.005000,0.01,0.01,0.007598,0.010049,0.09,-0.06,0.093714,-0.180219
38.449000,0.001000,-0.004800,0.01,0.00,0.009069,-0.000000,0.04,-0.14,-0.007209,-0.374856
38.482000,0.001300,-0.005000,0.01,-0.01,0.008578,-0.010049,0.00,-0.13,-0.007209,-0.180219
38.516000,0.001600,-0.005400,0.01,-0.01,0.010784,-0.010784,-0.06,-0.06,0.115340,0.115340
38.549000,0.002000,-0.005700,0.01,-0.01,0.009804,-0.008333,-0.13,0.02,-0.187428,-0.000000
38.582000,0.002200,-0.006000,-0.00,-0.01,0.002206,-0.011275,-0.16,0.10,-0.252307,-0.129758
38.616000,0.002100,-0.006400,-0.01,-0.00,-0.011765,-0.007108,-0.11,0.13,-0.504614,0.382065
38.649000,0.001500,-0.006400,-0.01,0.00,-0.015441,0.007353,-0.04,0.14,0.309977,0.389273
38.682000,0.001200,-0.006000,-0.01,0.01,-0.001225,0.010049,-0.01,0.22,0.410900,-0.223472
38.716000,0.001300,-0.005800,-0.01,0.01,-0.001225,0.001716,-0.02,0.58,-0.410900,-0.151384
38.749000,0.001000,-0.005700,-0.01,0.03,-0.014951,0.009069,-0.01,1.30,-0.295559,0.713668
38.782000,0.000400,-0.004700,-0.01,0.09,-0.014706,0.062500,0.06,2.19,0.302768,2.458189
38.816000,0.000100,-0.000900,-0.01,0.19,-0.003922,0.170098,0.17,2.87,0.273933,3.734141
38.849000,0.000100,0.007100,0.00,0.30,0.000980,0.299510,0.24,2.99,0.043253,3.705306
38.883000,0.000200,0.019300,0.01,0.40,0.009559,0.411520,0.21,2.44,0.468570,2.789792
38.916000,0.000800,0.034700,0.02,0.47,0.025490,0.488480,0.06,1.26,0.389273,1.679642
38.949000,0.001800,0.052000,0.02,0.49,0.027696,0.521078,-0.14,-0.40,-0.281142,0.144175
38.983000,0.002500,0.069400,0.01,0.45,0.010784,0.488235,-0.36,-2.31,-0.648789,-2.148212
39.016000,0.002500,0.084300,-0.01,0.34,-0.007353,0.372059,-0.49,-4.05,-0.403691,-4.642445
39.049000,0.002000,0.093900,-0.03,0.17,-0.024510,0.179902,-0.49,-5.02,-0.619954,-6.459054
39.083000,0.000800,0.096200,-0.04,-0.03,-0.047304,-0.045833,-0.37,-4.71,-0.655998,-6.495098
39.116000,-0.001100,0.091200,-0.05,-0.18,-0.057843,-0.234559,-0.20,-3.11,0.043253,-4.289216
39.149000,-0.003000,0.081400,-0.06,-0.25,-0.054167,-0.313971,0.01,-0.80,0.108131,-0.295559
39.183000,-0.004800,0.071200,-0.05,-0.23,-0.055882,-0.262990,0.23,1.29,-0.158593,3.049308
39.216000,-0.006700,0.064300,-0.04,-0.14,-0.048284,-0.140441,0.36,2.44,0.641580,3.842272
39.249000,-0.007900,0.061700,-0.02,-0.04,-0.019363,-0.018137,0.33,2.42,0.944348,3.171857
39.283000,-0.008100,0.062700,-0.01,0.04,0.000980,0.068627,0.14,1.52,0.173010,1.845444
39.316000,-0.008100,0.065800,-0.01,0.07,-0.007108,0.104167,-0.10,0.31,-0.583910,0.194637
39.349000,-0.008700,0.069100,-0.02,0.06,-0.025980,0.073039,-0.27,-0.71,-0.446943,-1.888697
39.383000,-0.009800,0.070400,-0.04,0.01,-0.035539,0.007843,-0.31,-1.24,-0.136967,-1.758939
39.416000,-0.011100,0.069700,-0.05,-0.04,-0.044118,-0.045588,-0.24,-1.15,-0.374856,-1.369666
39.449000,-0.012800,0.067400,-0.05,-0.08,-0.053922,-0.093382,-0.12,-0.58,-0.173010,-1.333622
39.483000,-0.014700,0.063700,-0.05,-0.08,-0.057353,-0.109559,-0.03,0.17,-0.014418,0.468570
39.516000,-0.016600,0.060500,-0.05,-0.06,-0.049755,-0.068627,0.02,0.73,0.410900,1.773356
39.550000,-0.018100,0.059200,-0.05,-0.02,-0.044118,-0.013480,-0.00,0.87,-0.115340,1.319204
39.583000,-0.019700,0.059400,-0.05,0.01,-0.050000,0.021569,-0.08,0.56,-0.187428,0.706459
39.616000,-0.021500,0.060400,-0.06,0.02,-0.054412,0.032598,-0.16,0.10,-0.072088,-0.079296
39.649000,-0.023400,0.061300,-0.06,0.01,-0.057843,0.011029,-0.22,-0.18,-0.158593,-1.074106
39.683000,-0.025500,0.061100,-0.07,-0.00,-0.068873,-0.016176,-0.25,-0.28,-0.468570,-0.374856
39.716000,-0.028100,0.060500,-0.08,-0.01,-0.082108,-0.006618,-0.26,-0.37,-0.266724,0.785755
39.749000,-0.031000,0.060600,-0.09,-0.02,-0.084804,-0.001225,-0.28,-0.46,0.057670,-0.627163
39.783000,-0.033900,0.060000,-0.10,-0.04,-0.091422,-0.044853,-0.27,-0.44,-0.468570,-1.737313
39.816000,-0.037300,0.057600,-0.11,-0.06,-0.108333,-0.083333,-0.23,-0.18,-0.461361,-0.346021
39.850000,-0.041200,0.054800,-0.11,-0.06,-0.117647,-0.071569,-0.19,0.21,-0.072088,0.951557
39.883000,-0.045200,0.053000,-0.12,-0.04,-0.116176,-0.034069,-0.22,0.40,0.115340,1.102941
39.916000,-0.049100,0.052400,-0.12,-0.02,-0.113480,-0.005637,-0.38,0.26,-0.036044,0.468570
39.950000,-0.053100,0.052300,-0.14,-0.02,-0.129657,-0.010784,-0.58,-0.01,-0.915513,-0.706459
39.983000,-0.058100,0.051500,-0.17,-0.03,-0.164951,-0.032598,-0.63,-0.21,-1.074106,-0.454152
40.016000,-0.064300,0.050200,-0.19,-0.04,-0.199265,-0.038971,-0.51,-0.29,-0.843426,0.050461
40.050000,-0.071400,0.048900,-0.20,-0.05,-0.206618,-0.039216,-0.26,-0.27,0.367647,-0.144175
40.083000,-0.078200,0.047400,-0.21,-0.06,-0.199020,-0.055882,0.01,-0.09,-0.014418,-0.778547
40.116000,-0.085000,0.045100,-0.20,-0.06,-0.203186,-0.075735,0.23,0.27,-0.151384,-0.237889
40.150000,-0.091900,0.042600,-0.19,-0.04,-0.195343,-0.059804,0.31,0.65,0.641580,1.182238
40.183000,-0.098100,0.041400,-0.18,-0.01,-0.165686,-0.004902,0.15,0.78,0.965975,1.859862
40.216000,-0.103300,0.042200,-0.17,0.02,-0.148284,0.043382,-0.22,0.54,-0.064879,0.814591
40.250000,-0.108600,0.043900,-0.19,0.03,-0.174510,0.043137,-0.55,0.13,-1.398501,-0.735294
40.283000,-0.115400,0.044900,-0.22,0.02,-0.225000,0.021078,-0.55,-0.16,-1.384083,-0.432526
40.317000,-0.123700,0.045400,-0.24,0.01,-0.254902,0.009314,-0.21,-0.15,-0.273933,-0.259516
40.350000,-0.132300,0.045600,-0.23,0.01,-0.239461,0.002206,0.19,0.07,1.074106,-0.122549
40.383000,-0.139800,0.045700,-0.22,0.02,-0.207353,0.009069,0.28,0.29,0.692042,0.540657
40.416000,-0.146500,0.046400,-0.20,0.03,-0.185784,0.036520,-0.10,0.46,0.504614,0.958766
40.450000,-0.152700,0.048100,-0.22,0.05,-0.187010,0.052696,-0.71,0.64,-0.670415,-0.007209
40.483000,-0.159700,0.049900,-0.26,0.07,-0.237010,0.055882,-1.07,0.86,-2.184256,0.360438
40.517000,-0.169100,0.052200,-0.30,0.11,-0.319608,0.092157,-0.86,1.02,-2.364475,1.744521
40.550000,-0.181000,0.056400,-0.33,0.15,-0.358088,0.154657,-0.23,0.95,0.237889,1.737313
40.583000,-0.192700,0.062500,-0.32,0.18,-0.316667,0.193382,0.37,0.58,1.931949,0.482987
40.617000,-0.202400,0.069200,-0.29,0.19,-0.265441,0.198039,0.64,0.10,0.872261,-0.173010
40.650000,-0.211100,0.075700,-0.27,0.18,-0.255882,0.176716,0.67,-0.23,-0.201845,-0.973183
40.683000,-0.219900,0.081200,-0.25,0.17,-0.256863,0.154657,0.70,-0.43,0.302768,-0.237889
40.717000,-0.228300,0.086400,-0.22,0.15,-0.227696,0.156127,0.77,-0.69,1.376874,0.194637
40.750000,-0.235200,0.091700,-0.19,0.13,-0.177696,0.147794,0.71,-1.05,1.391292,-0.829008
40.783000,-0.240600,0.096000,-0.17,0.08,-0.151471,0.091422,0.51,-1.31,0.115340,-2.386101
40.817000,-0.245800,0.097700,-0.16,0.03,-0.157598,0.010784,0.33,-1.28,-0.338812,-2.104960
40.850000,-0.251300,0.097100,-0.15,-0.01,-0.160294,-0.029167,0.30,-1.07,0.259516,-0.237889
40.883000,-0.256500,0.096100,-0.14,-0.04,-0.140196,-0.026225,0.33,-0.86,0.850634,0.151384
40.917000,-0.260800,0.095100,-0.13,-0.06,-0.116667,-0.050980,0.28,-0.67,0.446943,-1.614764
40.950000,-0.264600,0.092400,-0.12,-0.09,-0.111765,-0.105882,0.13,-0.40,-0.129758,-1.340830
40.983000,-0.268500,0.088300,-0.12,-0.10,-0.115931,-0.117157,-0.03,-0.11,-0.079296,0.706459
41.017000,-0.272500,0.084900,-0.12,-0.09,-0.120343,-0.076716,-0.10,0.01,-0.180219,1.391292
41.050000,-0.276700,0.082900,-0.13,-0.08,-0.126961,-0.057353,-0.06,-0.14,-0.187428,-0.389273
41.083000,-0.281100,0.080500,-0.13,-0.10,-0.130882,-0.093873,-0.01,-0.33,-0.014418,-1.549885
41.117000,-0.285500,0.076500,-0.13,-0.12,-0.122794,-0.129902,0.02,-0.30,0.425317,-0.418108
41.150000,-0.289500,0.072000,-0.13,-0.12,-0.120833,-0.128676,0.06,-0.04,-0.324394,0.410900
41.184000,-0.293800,0.067900,-0.12,-0.12,-0.130147,-0.114951,0.11,0.24,-0.122549,0.338812
41.217000,-0.298200,0.064200,-0.12,-0.10,-0.121814,-0.101471,0.12,0.41,0.583910,0.446943
41.250000,-0.302000,0.061000,-0.11,-0.09,-0.103186,-0.088971,0.06,0.52,0.396482,0.309977
41.283000,-0.305400,0.058200,-0.11,-0.07,-0.105637,-0.071814,-0.03,0.58,-0.511822,0.713668
41.317000,-0.309300,0.056200,-0.12,-0.05,-0.120588,-0.045588,-0.09,0.52,-0.273933,0.792964
41.350000,-0.313500,0.055100,-0.12,-0.03,-0.122794,-0.017157,-0.05,0.31,0.122549,0.778547
41.384000,-0.317600,0.054800,-0.12,-0.02,-0.121078,-0.012990,0.01,0.08,-0.028835,-0.526240
41.417000,-0.321700,0.054000,-0.12,-0.03,-0.115686,-0.032353,0.02,-0.04,0.317186,-0.475779
41.450000,-0.325500,0.052700,-0.12,-0.03,-0.113480,-0.038971,0.01,-0.03,-0.209054,0.108131
41.484000,-0.329500,0.051500,-0.12,-0.03,-0.121569,-0.028922,0.07,0.07,-0.201845,0.403691
41.517000,-0.333700,0.050700,-0.12,-0.03,-0.122794,-0.024510,0.19,0.20,0.165802,-0.144175
41.550000,-0.337700,0.049800,-0.11,-0.02,-0.108088,-0.025735,0.32,0.33,0.655998,0.151384
41.584000,-0.341000,0.049100,-0.09,-0.00,-0.088725,-0.010539,0.38,0.41,0.432526,0.728085
41.617000,-0.343800,0.049200,-0.08,0.01,-0.077206,0.017647,0.38,0.38,0.252307,0.836217
41.650000,-0.346300,0.050200,-0.07,0.03,-0.071324,0.035294,0.39,0.24,0.136967,0.158593
41.684000,-0.348600,0.051400,-0.06,0.03,-0.060294,0.031863,0.42,0.09,0.533449,-0.302768
41.717000,-0.350300,0.052300,-0.04,0.03,-0.037990,0.022059,0.33,0.03,0.728085,-0.201845
41.750000,-0.351200,0.053000,-0.03,0.03,-0.015686,0.023775,0.04,0.03,0.490196,0.295559
41.784000,-0.351600,0.054000,-0.03,0.03,-0.015686,0.035049,-0.36,0.01,-0.533449,0.295559
41.817000,-0.352600,0.055300,-0.06,0.03,-0.050000,0.037255,-0.57,-0.05,-1.384083,-0.187428
41.851000,-0.355100,0.056400,-0.08,0.03,-0.095343,0.024755,-0.34,-0.03,-1.117359,-0.482987
41.884000,-0.358800,0.057000,-0.09,0.02,-0.113480,0.013235,0.24,0.13,0.151384,-0.115340
41.917000,-0.362300,0.057500,-0.07,0.03,-0.079412,0.022059,0.75,0.34,1.758939,0.634371
41.950000,-0.363900,0.058700,-0.03,0.05,-0.014216,0.052206,0.83,0.42,1.845444,1.030854
41.984000,-0.363500,0.061000,0.00,0.07,0.025980,0.076716,0.46,0.28,0.418108,0.338812
42.017000,-0.362600,0.063700,0.01,0.07,0.017892,0.078922,-0.05,0.04,-0.785755,-0.187428
42.050000,-0.362500,0.066200,-0.01,0.07,-0.009314,0.064706,-0.34,-0.11,-0.706459,-0.576701
42.084000,-0.363200,0.068100,-0.03,0.06,-0.031373,0.050735,-0.26,-0.13,-0.547866,-0.180219
42.117000,-0.364500,0.069800,-0.03,0.06,-0.041667,0.053676,0.03,-0.10,-0.014418,0.309977
42.151000,-0.365800,0.071800,-0.02,0.06,-0.028676,0.062745,0.29,-0.11,0.742503,0.129758
42.184000,-0.366300,0.073900,-0.01,0.05,0.000245,0.052206,0.37,-0.15,0.843426,-0.699250
42.217000,-0.365900,0.075300,0.01,0.04,0.015441,0.036029,0.28,-0.21,0.036044,-0.165802
42.251000,-0.365400,0.076500,0.01,0.04,0.014951,0.038971,0.11,-0.28,-0.007209,0.252307
42.284000,-0.364900,0.077900,0.01,0.03,0.015196,0.036765,-0.07,-0.37,0.014418,-0.446943
42.317000,-0.364400,0.078800,0.01,0.01,0.013235,0.011520,-0.19,-0.47,-0.158593,-0.944348
42.351000,-0.364100,0.078700,-0.00,-0.01,0.000245,-0.010049,-0.19,-0.50,-0.569493,-0.295559
42.384000,-0.364400,0.078200,-0.01,-0.02,-0.015441,-0.021814,-0.06,-0.41,-0.281142,-0.439735
42.417000,-0.365000,0.077200,-0.01,-0.04,-0.015931,-0.037745,0.11,-0.23,0.266724,-0.461361
42.450000,-0.365300,0.075700,0.00,-0.04,0.003186,-0.048529,0.18,-0.04,0.771338,-0.115340
42.484000,-0.364800,0.074100,0.01,-0.04,0.020588,-0.037255,0.08,0.08,0.173010,0.706459
42.518000,-0.364100,0.073200,0.01,-0.03,0.016667,-0.022794,-0.08,0.09,-0.374856,0.064879
42.551000,-0.363800,0.072400,0.00,-0.03,-0.000735,-0.025980,-0.16,0.05,-0.569493,-0.201845
42.584000,-0.364100,0.071400,-0.00,-0.03,-0.012745,-0.031618,-0.14,0.03,-0.086505,-0.093714
42.617000,-0.364500,0.070300,-0.01,-0.03,-0.005637,-0.032353,-0.10,0.04,0.425317,0.072088
42.651000,-0.364500,0.069300,-0.01,-0.02,-0.000490,-0.021324,-0.10,0.01,-0.187428,0.511822
42.684000,-0.364700,0.068800,-0.01,-0.02,-0.014951,-0.014951,-0.07,-0.10,-0.583910,-0.194637
42.717000,-0.365500,0.068100,-0.02,-0.03,-0.027941,-0.028922,0.04,-0.21,-0.100923,-0.562284
42.751000,-0.366400,0.066800,-0.01,-0.04,-0.019853,-0.045343,0.17,-0.21,0.555075,-0.353230
42.784000,-0.366700,0.065100,-0.00,-0.05,0.004902,-0.052696,0.20,-0.09,0.778547,-0.079296
42.817000,-0.366200,0.063300,0.00,-0.05,0.014706,-0.052696,0.12,0.11,-0.230681,0.079296
42.851000,-0.365900,0.061600,0.01,-0.04,0.001961,-0.045588,0.04,0.27,-0.403691,0.346021
42.884000,-0.366000,0.060300,0.00,-0.03,-0.001471,-0.028186,0.04,0.32,0.216263,0.641580
42.918000,-0.365900,0.059700,0.01,-0.02,0.005637,-0.007843,0.06,0.26,0.165802,0.475779
42.951000,-0.365600,0.059600,0.01,-0.01,0.014216,-0.006127,0.03,0.20,0.302768,-0.338812
42.984000,-0.365000,0.059200,0.01,-0.01,0.016667,-0.013971,-0.04,0.20,-0.187428,-0.021626
43.017000,-0.364600,0.058800,0.01,0.00,0.003676,-0.004412,-0.06,0.23,-0.497405,0.562284
43.051000,-0.364700,0.059000,0.00,0.01,-0.003676,0.016422,-0.02,0.21,0.108131,0.569493
43.084000,-0.364700,0.059800,0.01,0.02,0.006127,0.023775,0.02,0.11,0.396482,-0.136967
43.118000,-0.364300,0.060500,0.01,0.02,0.013235,0.019608,-0.02,-0.01,-0.014418,-0.072088
43.151000,-0.363900,0.061100,0.01,0.01,0.009804,0.012745,-0.12,-0.04,-0.173010,-0.302768
43.184000,-0.363700,0.061400,-0.00,0.01,0.000490,0.009069,-0.22,0.04,-0.360438,0.108131
43.218000,-0.363900,0.061800,-0.01,0.02,-0.012500,0.014216,-0.22,0.16,-0.367647,0.173010
43.251000,-0.364500,0.062400,-0.02,0.02,-0.020098,0.021324,-0.16,0.24,-0.072088,0.252307
43.284000,-0.365200,0.063300,-0.02,0.03,-0.020588,0.033824,-0.07,0.20,0.014418,0.461361
43.318000,-0.365900,0.064700,-0.02,0.04,-0.022059,0.047794,0.05,0.04,-0.100923,0.295559
43.351000,-0.366700,0.066400,-0.02,0.04,-0.025245,0.046324,0.18,-0.17,-0.036044,-0.382065
43.384000,-0.367500,0.067700,-0.01,0.03,-0.016422,0.030147,0.26,-0.31,0.555075,-0.526240
43.418000,-0.367700,0.068400,0.00,0.01,0.005882,0.008824,0.23,-0.30,0.663206,-0.663206
43.451000,-0.367200,0.068400,0.01,0.00,0.017157,-0.001961,0.09,-0.20,-0.028835,0.043253
43.484000,-0.366700,0.068400,0.01,0.00,0.011275,0.001716,-0.06,-0.07,-0.273933,0.108131
43.518000,-0.366500,0.068500,0.00,0.00,-0.000490,0.001471,-0.14,0.03,-0.374856,-0.115340
43.551000,-0.366700,0.068500,-0.00,0.00,-0.008824,0.000245,-0.12,0.05,-0.086505,0.079296
43.585000,-0.367000,0.068600,-0.01,0.01,-0.005637,0.009559,-0.07,-0.01,0.223472,0.410900
43.618000,-0.367100,0.069100,-0.01,0.01,-0.004902,0.014461,-0.02,-0.10,-0.201845,-0.180219
43.651000,-0.367400,0.069400,-0.01,-0.00,-0.012990,-0.001716,0.05,-0.21,-0.209054,-0.684833
43.685000,-0.367900,0.069000,-0.01,-0.01,-0.011765,-0.014461,0.15,-0.28,0.288351,-0.036044
43.718000,-0.368100,0.068500,0.00,-0.02,-0.000245,-0.016667,0.23,-0.26,0.353230,-0.158593
43.751000,-0.367900,0.067800,0.01,-0.03,0.012010,-0.027696,0.20,-0.16,0.353230,-0.468570
43.785000,-0.367300,0.066600,0.02,-0.03,0.023775,-0.042892,0.03,0.00,0.295559,-0.324394
43.818000,-0.366400,0.065100,0.01,-0.03,0.025000,-0.034069,-0.19,0.13,-0.259516,0.800173
43.851000,-0.365800,0.064400,0.00,-0.02,0.004902,-0.012500,-0.30,0.17,-0.850634,0.353230
43.885000,-0.366100,0.064100,-0.01,-0.01,-0.018627,-0.008824,-0.25,0.10,-0.446943,-0.115340
43.918000,-0.366900,0.063700,-0.02,-0.01,-0.024265,-0.014951,-0.06,0.02,0.108131,-0.194637
43.951000,-0.367600,0.063100,-0.01,-0.02,-0.015196,-0.018627,0.14,-0.01,0.374856,0.000000
43.985000,-0.367900,0.062500,-0.00,-0.02,-0.004412,-0.014461,0.21,-0.01,0.245098,0.209054
44.018000,-0.367900,0.062100,0.00,-0.01,0.006618,-0.012500,0.14,-0.04,0.382065,-0.108131
44.051000,-0.367500,0.061600,0.01,-0.02,0.014216,-0.015931,0.00,-0.07,0.014418,-0.079296
44.085000,-0.367100,0.061000,0.00,-0.02,0.003186,-0.020588,-0.11,-0.06,-0.598328,-0.187428
44.118000,-0.367300,0.060200,-0.00,-0.02,-0.009069,-0.025980,-0.15,0.05,-0.064879,-0.100923
44.151000,-0.367600,0.059300,-0.01,-0.02,-0.006863,-0.025245,-0.09,0.22,0.129758,0.165802
44.185000,-0.367800,0.058600,-0.01,-0.01,-0.010294,-0.012990,0.08,0.39,-0.317186,0.540657
44.218000,-0.368300,0.058500,-0.01,0.01,-0.016667,0.007108,0.28,0.47,0.043253,0.612745
44.251000,-0.368700,0.059100,0.01,0.03,0.002451,0.028922,0.39,0.45,1.038062,0.634371
44.285000,-0.368000,0.060400,0.03,0.04,0.037255,0.043873,0.33,0.33,0.850634,0.237889
44.318000,-0.366400,0.062000,0.04,0.05,0.045833,0.050980,0.13,0.16,-0.338812,0.187428
44.351000,-0.365100,0.063800,0.03,0.05,0.031863,0.052206,-0.09,-0.01,-0.374856,-0.108131
44.385000,-0.364200,0.065500,0.03,0.05,0.024510,0.049510,-0.22,-0.16,-0.057670,-0.057670
44.418000,-0.363400,0.067100,0.02,0.04,0.021814,0.040441,-0.24,-0.26,-0.151384,-0.468570
44.451000,-0.362800,0.068200,0.01,0.03,0.008824,0.025980,-0.18,-0.29,-0.576701,-0.346021
44.485000,-0.362800,0.068900,0.00,0.02,-0.005637,0.015686,-0.09,-0.24,-0.194637,-0.259516
44.518000,-0.363000,0.069300,0.00,0.01,0.000735,0.008088,-0.02,-0.13,0.511822,-0.180219
44.552000,-0.362700,0.069500,0.01,0.01,0.012500,0.004657,-0.00,-0.05,0.093714,-0.007209
44.585000,-0.362300,0.069700,0.00,0.01,0.006373,0.010539,-0.04,-0.04,-0.403691,0.309977
44.618000,-0.362300,0.070200,0.00,0.01,-0.002696,0.015441,-0.06,-0.08,-0.079296,-0.079296
44.652000,-0.362400,0.070600,-0.00,0.00,-0.001961,0.002941,-0.04,-0.07,0.100923,-0.591119
44.685000,-0.362400,0.070400,-0.00,-0.00,0.002206,-0.010294,-0.00,0.03,0.108131,-0.100923
44.718000,-0.362300,0.070100,-0.00,0.00,-0.000000,-0.001471,0.04,0.15,-0.216263,0.576701
44.751000,-0.362400,0.070400,0.00,0.01,-0.002696,0.017402,0.09,0.16,0.093714,0.454152
44.785000,-0.362400,0.071200,0.01,0.02,0.004167,0.027696,0.10,0.03,0.281142,0.108131
44.818000,-0.362100,0.072100,0.01,0.02,0.012745,0.018873,0.08,-0.09,0.187428,-0.583910
44.852000,-0.361600,0.072400,0.01,0.01,0.014216,0.000980,0.04,-0.07,-0.100923,-0.374856
44.885000,-0.361200,0.072300,0.01,0.01,0.008088,-0.002941,0.02,0.01,-0.209054,0.173010
44.918000,-0.361000,0.072400,0.01,0.01,0.007353,0.015931,0.01,-0.02,0.187428,0.814591
44.952000,-0.360600,0.073300,0.01,0.01,0.019363,0.025980,-0.03,-0.30,0.425317,-0.302768
44.985000,-0.359800,0.073900,0.01,-0.00,0.018137,0.009069,-0.12,-0.79,-0.504614,-0.670415
45.018000,-0.359500,0.073700,0.00,-0.04,0.002206,-0.025245,-0.19,-1.21,-0.353230,-1.376874
45.052000,-0.359600,0.071900,-0.00,-0.09,-0.006863,-0.089461,-0.16,-1.20,-0.173010,-2.285179
45.085000,-0.359900,0.067600,-0.01,-0.14,-0.009314,-0.159314,-0.06,-0.61,0.014418,-1.585928
45.118000,-0.360200,0.061600,-0.01,-0.14,-0.009804,-0.176471,0.02,0.33,-0.028835,0.648789
45.152000,-0.360500,0.056300,-0.00,-0.11,-0.002451,-0.123529,0.03,1.17,0.418108,2.292388
45.185000,-0.360400,0.053500,-0.00,-0.05,0.001716,-0.043382,0.04,1.52,-0.209054,2.227509
45.219000,-0.360500,0.053200,-0.00,0.01,-0.008824,0.018627,0.11,1.28,-0.317186,1.369666
45.252000,-0.360900,0.054500,0.00,0.04,-0.008578,0.056127,0.20,0.68,0.367647,0.814591
45.285000,-0.360900,0.056700,0.01,0.05,0.012255,0.064706,0.23,0.02,0.764129,-0.302768
45.318000,-0.360100,0.058600,0.02,0.04,0.029412,0.044608,0.15,-0.48,0.173010,-0.807382
45.352000,-0.359100,0.059600,0.02,0.01,0.024265,0.013480,-0.01,-0.70,-0.410900,-0.973183
45.385000,-0.358500,0.059500,0.02,-0.02,0.015441,-0.018627,-0.16,-0.62,-0.064879,-0.879469
45.418000,-0.358000,0.058400,0.01,-0.03,0.014461,-0.046078,-0.22,-0.26,-0.050461,-0.663206
45.452000,-0.357600,0.056600,0.00,-0.04,0.003431,-0.051716,-0.19,0.21,-0.576701,0.367647
45.485000,-0.357800,0.055200,-0.01,-0.02,-0.012500,-0.025735,-0.06,0.58,-0.281142,1.088524
45.519000,-0.358300,0.055000,-0.00,0.01,-0.012500,0.014461,0.15,0.66,0.281142,1.175029
45.552000,-0.358500,0.056100,0.01,0.04,0.001961,0.046078,0.29,0.37,0.533449,0.619954
45.585000,-0.358100,0.057900,0.02,0.04,0.023039,0.056127,0.26,-0.14,0.648789,-0.064879
45.619000,-0.357000,0.059600,0.03,0.02,0.038480,0.036029,0.07,-0.59,0.194637,-1.088524
45.652000,-0.355700,0.060100,0.03,-0.01,0.031373,-0.009804,-0.14,-0.74,-0.576701,-1.470588
45.685000,-0.355000,0.059000,0.02,-0.03,0.010539,-0.048529,-0.24,-0.56,-0.555075,-0.706459
45.719000,-0.354900,0.057100,0.00,-0.05,-0.000000,-0.055392,-0.18,-0.22,-0.057670,0.245098
45.752000,-0.354900,0.055400,0.00,-0.05,-0.000735,-0.047304,-0.02,0.10,-0.007209,0.165802
45.785000,-0.354900,0.053900,0.00,-0.04,0.002206,-0.040686,0.09,0.31,0.180219,0.245098
45.819000,-0.354700,0.052700,0.01,-0.02,0.010294,-0.027451,0.10,0.37,0.273933,0.533449
45.852000,-0.354200,0.052100,0.01,-0.01,0.019608,-0.006373,0.04,0.30,0.216263,0.648789
45.885000,-0.353500,0.052200,0.01,-0.00,0.013725,0.008578,-0.00,0.10,-0.519031,0.180219
45.919000,-0.353300,0.052500,0.01,-0.00,0.003922,0.004902,0.02,-0.14,0.014418,-0.374856
45.952000,-0.353100,0.052400,0.01,-0.01,0.009559,-0.011520,0.08,-0.27,0.281142,-0.540657
45.985000,-0.352600,0.051700,0.02,-0.03,0.019853,-0.029167,0.09,-0.20,0.281142,-0.454152
46.019000,-0.351800,0.050500,0.02,-0.03,0.024755,-0.039461,0.04,0.03,-0.007209,-0.108131
46.052000,-0.351000,0.049200,0.02,-0.02,0.021078,-0.031863,-0.03,0.26,-0.187428,0.547866
46.085000,-0.350400,0.048500,0.02,-0.01,0.013971,-0.006373,-0.06,0.38,-0.194637,0.850634
46.119000,-0.350000,0.048700,0.02,0.00,0.012500,0.010539,-0.07,0.38,0.108131,0.122549
46.152000,-0.349500,0.049100,0.01,0.02,0.017647,0.014216,-0.08,0.33,0.129758,0.158593
46.186000,-0.348900,0.049700,0.01,0.03,0.010784,0.022549,-0.04,0.19,-0.504614,0.346021
46.219000,-0.348800,0.050700,0.01,0.03,-0.000980,0.040686,0.07,-0.11,-0.100923,0.619954
46.252000,-0.348800,0.052300,0.01,0.03,0.005147,0.043873,0.21,-0.59,0.454152,-0.526240
46.286000,-0.348300,0.053300,0.02,-0.00,0.027206,0.008088,0.24,-1.13,0.756920,-1.521050
46.319000,-0.347000,0.052600,0.03,-0.05,0.044363,-0.050735,0.18,-1.54,0.180219,-1.852653
46.352000,-0.345500,0.049800,0.04,-0.11,0.037255,-0.112255,0.10,-1.76,-0.519031,-1.730104
46.386000,-0.344500,0.045000,0.04,-0.17,0.026716,-0.168627,0.09,-1.90,-0.007209,-1.614764
46.419000,-0.343500,0.038300,0.04,-0.24,0.037500,-0.227941,0.12,-2.09,0.583910,-1.903114
46.452000,-0.341900,0.029400,0.05,-0.31,0.053676,-0.296324,0.13,-2.33,0.281142,-2.141003
46.486000,-0.340000,0.018000,0.05,-0.39,0.052206,-0.378676,0.08,-2.50,-0.324394,-2.703287
46.519000,-0.338400,0.003500,0.05,-0.48,0.045833,-0.477941,0.03,-2.46,0.007209,-3.027682
46.552000,-0.336800,-0.014400,0.05,-0.56,0.050000,-0.567157,0.06,-2.14,0.201845,-2.148212
46.586000,-0.335000,-0.034800,0.05,-0.63,0.052941,-0.629167,0.18,-1.50,-0.028835,-1.535467
46.619000,-0.333200,-0.057000,0.06,-0.67,0.053676,-0.680147,0.32,-0.65,0.136967,-1.348039
46.652000,-0.331200,-0.080600,0.08,-0.67,0.070588,-0.688971,0.36,0.14,0.836217,0.872261
46.686000,-0.328300,-0.103300,0.09,-0.65,0.099755,-0.639216,0.22,0.67,0.756920,1.802191
46.719000,-0.324600,-0.124100,0.10,-0.62,0.110294,-0.598284,-0.09,0.86,-0.187428,0.526240
46.752000,-0.321100,-0.144200,0.09,-0.59,0.089951,-0.583824,-0.38,0.74,-0.929931,0.461361
46.786000,-0.318600,-0.163700,0.06,-0.57,0.058824,-0.552941,-0.47,0.42,-0.807382,1.268743
46.819000,-0.317000,-0.181900,0.05,-0.56,0.038971,-0.529412,-0.32,0.06,-0.338812,-0.014418
46.853000,-0.315800,-0.200100,0.04,-0.57,0.033088,-0.550245,-0.10,-0.21,-0.007209,-1.074106
46.886000,-0.314600,-0.219400,0.04,-0.58,0.042402,-0.577451,0.02,-0.28,0.497405,-0.418108
46.919000,-0.312900,-0.239200,0.05,-0.59,0.053676,-0.585539,0.02,-0.10,0.093714,-0.079296
46.953000,-0.311100,-0.259100,0.05,-0.59,0.047794,-0.584314,0.04,0.17,-0.396482,0.158593
46.986000,-0.309700,-0.278800,0.05,-0.58,0.035539,-0.570343,0.15,0.35,-0.223472,0.641580
47.019000,-0.308500,-0.297800,0.05,-0.56,0.042647,-0.547549,0.26,0.39,0.648789,0.634371
47.052000,-0.306600,-0.316100,0.07,-0.55,0.072304,-0.532598,0.23,0.30,0.958766,0.237889
47.086000,-0.303700,-0.334100,0.08,-0.54,0.089706,-0.525000,-0.00,0.12,-0.014418,0.201845
47.119000,-0.300800,-0.351900,0.07,-0.54,0.075980,-0.526961,-0.29,-0.02,-0.735294,-0.302768
47.153000,-0.298700,-0.370000,0.05,-0.55,0.045588,-0.535294,-0.48,0.00,-0.937140,-0.158593
47.186000,-0.297600,-0.388300,0.03,-0.55,0.028186,-0.545343,-0.52,0.23,-0.093714,-0.353230
47.219000,-0.296700,-0.406900,0.02,-0.53,0.020833,-0.538480,-0.42,0.51,-0.425317,0.814591
47.253000,-0.296300,-0.424600,0.00,-0.51,-0.003186,-0.496814,-0.20,0.62,-0.886678,1.492215
47.286000,-0.296800,-0.440700,-0.00,-0.48,-0.016667,-0.456618,0.05,0.49,0.187428,0.728085
47.319000,-0.297100,-0.456000,0.01,-0.47,0.007108,-0.454902,0.25,0.33,1.074106,-0.547866
47.353000,-0.296300,-0.471800,0.02,-0.47,0.031127,-0.470833,0.33,0.42,0.237889,-0.223472
47.386000,-0.295200,-0.487800,0.03,-0.46,0.028676,-0.463971,0.29,0.89,-0.266724,0.684833
47.419000,-0.294300,-0.503000,0.04,-0.42,0.033578,-0.424020,0.18,1.62,0.583910,1.658016
47.453000,-0.292800,-0.516300,0.05,-0.35,0.053922,-0.354167,-0.02,2.38,0.490196,2.429354
47.486000,-0.290800,-0.526800,0.04,-0.25,0.057353,-0.259069,-0.27,2.94,-0.346021,3.135813
47.520000,-0.289200,-0.533700,0.03,-0.14,0.029167,-0.143382,-0.42,3.19,-1.218281,3.597174
47.553000,-0.288900,-0.536500,0.01,-0.03,-0.008824,-0.022304,-0.33,3.13,-0.850634,3.424164
47.586000,-0.289500,-0.535400,-0.00,0.07,-0.014216,0.080147,-0.11,2.88,0.519031,2.573529
47.619000,-0.289600,-0.531300,0.00,0.16,0.009069,0.156373,0.01,2.68,0.684833,2.004037
47.653000,-0.289000,-0.524800,0.01,0.24,0.017647,0.230392,-0.11,2.64,-0.216263,2.422145
47.686000,-0.288600,-0.515500,0.00,0.33,0.006127,0.319118,-0.39,2.72,-0.425317,2.782584
47.719000,-0.288700,-0.503000,-0.02,0.42,-0.014706,0.417892,-0.61,2.76,-0.792964,2.977220
47.753000,-0.289700,-0.487100,-0.05,0.52,-0.045588,0.514461,-0.56,2.56,-0.980392,2.674452
47.786000,-0.291800,-0.468100,-0.07,0.60,-0.079412,0.605392,-0.20,2.06,-0.879469,2.595156
47.820000,-0.294800,-0.446200,-0.06,0.66,-0.084314,0.673039,0.28,1.41,0.648789,1.297578
47.853000,-0.297100,-0.422800,-0.04,0.70,-0.043382,0.692892,0.59,0.86,1.593137,-0.021626
47.886000,-0.297700,-0.399300,-0.01,0.71,0.001471,0.692402,0.55,0.54,0.893887,0.136967
47.920000,-0.297300,-0.375600,0.00,0.73,0.013725,0.707843,0.22,0.48,-0.144175,0.749712
47.953000,-0.297000,-0.351100,-0.00,0.74,0.004412,0.730392,-0.11,0.59,-0.346021,0.519031
47.986000,-0.297100,-0.326000,-0.01,0.76,-0.013971,0.742157,-0.23,0.74,-0.670415,0.259516
48.020000,-0.297900,-0.300500,-0.02,0.79,-0.027206,0.768137,-0.15,0.84,-0.064879,1.283160
48.053000,-0.298800,-0.273600,-0.02,0.82,-0.024265,0.813971,-0.00,0.91,0.194637,1.275952
48.086000,-0.299500,-0.245300,-0.02,0.85,-0.017402,0.841422,0.08,1.07,0.180219,0.353230
48.120000,-0.300000,-0.216500,-0.01,0.89,-0.012990,0.852941,0.03,1.49,0.079296,0.504614
48.153000,-0.300400,-0.187000,-0.01,0.94,-0.008824,0.892402,-0.10,2.09,0.129758,1.953576
48.186000,-0.300700,-0.155200,-0.02,1.03,-0.014216,0.995588,-0.21,2.33,-0.461361,3.979239
48.220000,-0.301500,-0.119000,-0.03,1.12,-0.035049,1.134559,-0.20,1.51,-0.670415,3.784602
48.253000,-0.303000,-0.078700,-0.04,1.17,-0.047059,1.213480,-0.10,-0.50,0.014418,0.526240
48.286000,-0.304500,-0.037900,-0.04,1.11,-0.036765,1.156373,0.03,-3.06,0.504614,-3.892734
48.320000,-0.305500,-0.001500,-0.03,0.95,-0.028186,0.961029,0.10,-5.15,-0.036044,-7.259227
48.353000,-0.306500,0.026800,-0.03,0.73,-0.029902,0.707353,0.11,-6.14,-0.014418,-7.295271
48.386000,-0.307500,0.046800,-0.03,0.51,-0.026961,0.480637,0.08,-6.04,0.187428,-5.947232
48.420000,-0.308300,0.059900,-0.02,0.32,-0.019608,0.295098,0.00,-5.29,0.201845,-5.002884
48.453000,-0.308900,0.067200,-0.02,0.16,-0.019118,0.137990,-0.07,-4.24,-0.187428,-4.245963
48.486000,-0.309700,0.069600,-0.03,0.03,-0.029657,0.005637,-0.07,-3.03,-0.382065,-3.452999
48.520000,-0.310900,0.068100,-0.03,-0.05,-0.038971,-0.079902,0.01,-1.71,-0.108131,-1.528258
48.553000,-0.312200,0.064800,-0.03,-0.08,-0.032108,-0.106127,0.10,-0.45,0.482987,-0.064879
48.587000,-0.313000,0.061400,-0.02,-0.07,-0.015686,-0.085539,0.12,0.47,0.389273,1.189446
48.620000,-0.313400,0.059300,-0.02,-0.04,-0.014951,-0.034804,0.08,0.86,-0.324394,1.643599
48.653000,-0.314100,0.059000,-0.02,-0.00,-0.023529,0.011520,0.03,0.84,-0.100923,0.973183
48.687000,-0.314900,0.059800,-0.02,0.02,-0.019363,0.026716,0.01,0.64,0.309977,-0.007209
48.720000,-0.315400,0.060700,-0.02,0.04,-0.013725,0.030392,0.01,0.36,-0.014418,0.331603
48.753000,-0.315900,0.062000,-0.02,0.05,-0.016176,0.053676,-0.01,0.02,-0.100923,0.915513
48.787000,-0.316500,0.064200,-0.02,0.04,-0.017647,0.063725,-0.02,-0.33,0.014418,-0.446943
48.820000,-0.317100,0.065900,-0.02,0.02,-0.019118,0.026225,-0.01,-0.51,-0.100923,-1.607555
48.853000,-0.317800,0.065900,-0.02,-0.00,-0.021569,-0.020343,-0.00,-0.38,-0.014418,-0.929931
48.887000,-0.318500,0.064900,-0.02,-0.01,-0.015686,-0.025490,-0.04,-0.08,0.317186,0.605536
48.920000,-0.318900,0.064500,-0.02,-0.00,-0.012745,0.004412,-0.08,0.11,-0.187428,0.965975
48.953000,-0.319500,0.065100,-0.02,0.01,-0.025490,0.022059,-0.08,0.06,-0.490196,-0.014418
48.987000,-0.320600,0.065700,-0.03,0.00,-0.034559,0.006618,-0.02,-0.07,0.007209,-0.785755
49.020000,-0.321700,0.065500,-0.03,-0.00,-0.026471,-0.012990,0.09,-0.05,0.403691,-0.266724
49.053000,-0.322400,0.065000,-0.02,-0.00,-0.020588,-0.012500,0.17,0.18,-0.057670,0.281142
49.087000,-0.323100,0.064800,-0.01,0.01,-0.015686,0.000980,0.16,0.45,0.374856,0.504614
49.120000,-0.323400,0.065200,-0.01,0.03,-0.000735,0.027451,0.10,0.57,0.410900,1.009227
49.153000,-0.323300,0.066700,-0.01,0.05,-0.003186,0.058088,0.09,0.50,-0.526240,0.713668
49.187000,-0.323700,0.069000,-0.01,0.07,-0.016667,0.073039,0.13,0.33,-0.129758,0.158593
49.220000,-0.324200,0.071500,0.00,0.07,-0.002696,0.070588,0.15,0.18,0.886678,-0.230681
49.254000,-0.323800,0.073800,0.01,0.08,0.021324,0.069363,0.05,0.06,0.382065,0.194637
49.287000,-0.323000,0.076300,0.01,0.08,0.017402,0.078922,-0.11,-0.08,-0.583910,0.302768
49.320000,-0.322800,0.079100,-0.00,0.07,-0.005637,0.082598,-0.22,-0.27,-0.655998,-0.151384
49.353000,-0.323300,0.081700,-0.01,0.06,-0.018137,0.063480,-0.16,-0.45,-0.057670,-0.929931
49.387000,-0.323900,0.083300,-0.01,0.04,-0.017402,0.032108,-0.04,-0.55,0.079296,-0.814591
49.420000,-0.324400,0.084000,-0.01,0.02,-0.008088,0.014706,0.01,-0.59,0.410900,-0.216263
49.453000,-0.324500,0.084400,-0.01,0.00,-0.004412,0.009559,-0.05,-0.69,-0.216263,-0.194637
49.487000,-0.324800,0.084500,-0.01,-0.02,-0.011275,-0.011765,-0.16,-0.86,-0.158593,-1.081315
49.520000,-0.325300,0.083400,-0.02,-0.06,-0.020343,-0.053922,-0.26,-0.95,-0.367647,-1.326413
49.554000,-0.326200,0.080800,-0.03,-0.09,-0.030637,-0.099510,-0.28,-0.80,-0.237889,-1.268743
49.587000,-0.327400,0.076800,-0.04,-0.12,-0.043137,-0.129167,-0.20,-0.34,-0.475779,-0.425317
49.620000,-0.329100,0.072300,-0.05,-0.12,-0.053431,-0.132353,-0.04,0.26,-0.086505,0.245098
49.654000,-0.330900,0.068100,-0.05,-0.10,-0.050000,-0.107843,0.13,0.79,0.273933,1.167820
49.687000,-0.332400,0.065200,-0.04,-0.06,-0.037010,-0.060294,0.25,1.10,0.454152,1.528258
49.720000,-0.333400,0.064000,-0.03,-0.02,-0.022794,-0.015196,0.27,1.15,0.353230,1.095732
49.754000,-0.334000,0.064100,-0.02,0.02,-0.013971,0.022794,0.21,0.93,0.165802,1.146194
49.787000,-0.334400,0.065500,-0.01,0.05,-0.009804,0.059559,0.13,0.50,0.086505,0.929931
49.820000,-0.334700,0.067900,-0.01,0.06,-0.008578,0.072304,0.07,-0.04,-0.007209,-0.209054
49.854000,-0.335000,0.070100,-0.01,0.05,-0.009069,0.054412,0.05,-0.53,-0.007209,-0.792964
49.887000,-0.335300,0.071400,-0.01,0.02,-0.007598,0.018382,0.03,-0.80,0.093714,-1.261534
49.920000,-0.335500,0.071300,-0.01,-0.02,-0.004167,-0.022304,0.01,-0.72,0.093714,-1.059689
49.954000,-0.335600,0.070000,-0.01,-0.04,-0.002206,-0.052696,-0.03,-0.34,0.007209,-0.655998
49.987000,-0.335700,0.068000,-0.01,-0.04,-0.005392,-0.055882,-0.06,0.15,-0.187428,0.475779
50.021000,-0.336000,0.066500,-0.01,-0.03,-0.012500,-0.029167,-0.03,0.50,-0.194637,1.002018
50.054000,-0.336500,0.066100,-0.01,-0.00,-0.014216,0.004412,0.04,0.57,0.100923,0.893887
50.087000,-0.336900,0.066700,-0.01,0.02,-0.009314,0.027696,0.12,0.37,0.173010,0.439735
50.120000,-0.337100,0.067800,-0.00,0.03,-0.001471,0.033088,0.15,0.02,0.273933,-0.108131
50.154000,-0.337000,0.068800,0.00,0.02,0.006618,0.025245,0.09,-0.33,0.180219,-0.338812
50.187000,-0.336700,0.069400,0.01,0.00,0.010049,0.007353,0.01,-0.56,0.007209,-0.706459
50.221000,-0.336400,0.069200,0.00,-0.02,0.004657,-0.020343,-0.05,-0.60,-0.295559,-0.886678
50.254000,-0.336400,0.068000,0.00,-0.04,-0.002451,-0.050735,-0.05,-0.36,-0.086505,-0.829008
50.287000,-0.336500,0.065900,-0.00,-0.05,-0.001961,-0.068137,0.01,0.14,0.100923,-0.115340
50.321000,-0.336500,0.063700,0.00,-0.04,0.001716,-0.053676,0.07,0.68,0.093714,0.973183
50.354000,-0.336400,0.062600,0.01,-0.00,0.002206,-0.003922,0.11,0.94,-0.036044,1.831027
50.387000,-0.336300,0.063500,0.01,0.04,0.008578,0.052941,0.10,0.73,0.396482,1.355248
50.421000,-0.335800,0.065900,0.01,0.06,0.017892,0.079902,0.10,0.08,0.093714,0.173010
50.454000,-0.335200,0.068500,0.01,0.05,0.012500,0.065931,0.15,-0.74,-0.338812,-0.973183
50.487000,-0.334900,0.070000,0.02,0.01,0.012255,0.016422,0.19,-1.43,0.374856,-1.867070
50.521000,-0.334200,0.069400,0.03,-0.05,0.031618,-0.052696,0.12,-1.87,0.670415,-2.112168
50.554000,-0.332800,0.066400,0.03,-0.12,0.046569,-0.120588,-0.08,-2.16,0.115340,-1.874279
50.587000,-0.331300,0.061200,0.03,-0.20,0.033333,-0.186029,-0.31,-2.48,-0.850634,-2.040081
50.621000,-0.330700,0.053600,0.01,-0.28,0.002941,-0.265196,-0.41,-2.87,-0.821799,-2.667243
50.654000,-0.331000,0.042900,-0.01,-0.39,-0.015686,-0.370343,-0.31,-3.21,-0.245098,-3.496251
50.687000,-0.331600,0.028200,-0.01,-0.51,-0.017157,-0.497794,-0.08,-3.28,0.115340,-3.885525
50.721000,-0.332100,0.009100,-0.01,-0.62,-0.013971,-0.620343,0.15,-2.92,0.064879,-3.222318
50.754000,-0.332500,-0.013700,-0.00,-0.71,-0.007598,-0.716422,0.26,-2.18,0.338812,-2.371684
50.787000,-0.332500,-0.039200,0.01,-0.77,0.012990,-0.774265,0.23,-1.31,0.785755,-1.016436
50.821000,-0.331700,-0.065900,0.02,-0.79,0.024755,-0.788725,0.11,-0.55,-0.136967,0.072088
50.854000,-0.331000,-0.092600,0.02,-0.80,0.016176,-0.782598,-0.00,0.05,-0.288351,0.194637
50.888000,-0.330600,-0.119100,0.01,-0.79,0.009314,-0.780392,-0.05,0.48,-0.086505,-0.000000
50.921000,-0.330300,-0.145500,0.01,-0.76,0.010049,-0.763235,-0.01,0.64,0.108131,1.066897
50.954000,-0.329900,-0.170700,0.01,-0.74,0.011520,-0.710049,0.05,0.45,-0.021626,1.838235
50.988000,-0.329500,-0.194000,0.02,-0.72,0.014461,-0.677696,0.08,-0.02,0.194637,-0.108131
51.021000,-0.328900,-0.217400,0.02,-0.74,0.019608,-0.711520,0.08,-0.40,0.086505,-1.708478
51.054000,-0.328200,-0.242600,0.02,-0.76,0.020833,-0.767157,0.07,-0.35,-0.007209,-1.311995
51.088000,-0.327500,-0.269200,0.02,-0.77,0.019853,-0.783824,0.05,0.14,-0.021626,0.389273
51.121000,-0.326800,-0.295400,0.02,-0.75,0.025245,-0.750245,-0.01,0.65,0.309977,1.463379
51.154000,-0.325800,-0.320000,0.02,-0.72,0.029902,-0.696078,-0.09,0.82,-0.086505,1.557093
51.188000,-0.324900,-0.342900,0.02,-0.69,0.019853,-0.659804,-0.08,0.67,-0.468570,0.504614
51.221000,-0.324500,-0.365200,0.01,-0.68,0.002696,-0.659559,0.05,0.52,-0.425317,-0.367647
51.254000,-0.324500,-0.387800,0.02,-0.66,0.008824,-0.663971,0.18,0.60,0.778547,0.237889
51.288000,-0.323700,-0.410100,0.03,-0.64,0.037500,-0.641912,0.19,0.89,0.756920,1.059689
51.321000,-0.322100,-0.431200,0.04,-0.60,0.049265,-0.595343,0.04,1.14,-0.108131,1.607555
51.354000,-0.320600,-0.450500,0.03,-0.56,0.034314,-0.540931,-0.08,1.15,-0.677624,1.506632
51.388000,-0.319800,-0.468100,0.02,-0.52,0.016667,-0.497794,-0.01,1.00,-0.273933,0.973183
51.421000,-0.319300,-0.484600,0.03,-0.50,0.015931,-0.480882,0.23,1.02,0.252307,0.086505
51.454000,-0.318500,-0.500900,0.04,-0.47,0.036520,-0.478676,0.36,1.42,0.915513,0.281142
51.488000,-0.316700,-0.516700,0.06,-0.41,0.071324,-0.430882,0.20,2.07,0.973183,2.595156
51.521000,-0.313900,-0.529600,0.06,-0.32,0.080637,-0.319608,-0.13,2.69,-0.482987,3.705306
51.555000,-0.311600,-0.538400,0.05,-0.22,0.048775,-0.211520,-0.40,3.11,-1.232699,2.587947
51.588000,-0.310600,-0.544100,0.03,-0.11,0.017402,-0.120588,-0.46,3.35,-0.511822,2.897924
51.621000,-0.310200,-0.546400,0.01,0.00,0.011029,-0.006373,-0.31,3.54,0.064879,3.791811
51.654000,-0.309800,-0.544400,0.01,0.12,0.007353,0.120588,-0.10,3.72,-0.302768,3.618800
51.688000,-0.309700,-0.538200,0.01,0.25,0.000735,0.244853,0.04,3.75,-0.021626,3.712514
51.721000,-0.309600,-0.527700,0.01,0.38,0.011275,0.376471,-0.00,3.49,0.591119,3.964821
51.754000,-0.308900,-0.512700,0.01,0.49,0.027696,0.500980,-0.19,2.96,0.237889,3.243945
51.788000,-0.308000,-0.494000,0.00,0.58,0.013725,0.589951,-0.38,2.31,-1.038062,1.967993
51.821000,-0.308200,-0.473000,-0.02,0.64,-0.025980,0.637500,-0.38,1.76,-1.124567,0.944348
51.855000,-0.309600,-0.450800,-0.03,0.69,-0.047304,0.672059,-0.11,1.44,-0.064879,1.196655
51.888000,-0.311100,-0.427200,-0.03,0.74,-0.036765,0.720098,0.21,1.20,0.634371,1.600346
51.921000,-0.311900,-0.401800,-0.01,0.78,-0.006127,0.774510,0.32,0.82,1.045271,1.470588
51.955000,-0.311600,-0.374800,0.00,0.80,0.015686,0.803922,0.17,0.34,0.158593,0.173010
51.988000,-0.311100,-0.347600,0.00,0.79,0.009314,0.783578,-0.07,0.01,-0.475779,-1.203864
52.021000,-0.311100,-0.321600,-0.01,0.79,-0.009804,0.755882,-0.21,-0.01,-0.562284,-0.259516
52.055000,-0.311700,-0.295900,-0.02,0.79,-0.020588,0.761275,-0.21,0.16,-0.057670,0.547866
52.088000,-0.312400,-0.269600,-0.02,0.80,-0.020588,0.790931,-0.16,0.25,0.014418,1.059689
52.121000,-0.313100,-0.242200,-0.02,0.81,-0.021324,0.812255,-0.19,0.26,-0.079296,0.086505
52.155000,-0.313900,-0.214700,-0.03,0.81,-0.026961,0.794608,-0.30,0.48,-0.259516,-0.951557
52.188000,-0.315000,-0.188100,-0.04,0.83,-0.038235,0.779657,-0.40,1.07,-0.418108,0.338812
52.221000,-0.316600,-0.161000,-0.06,0.88,-0.060784,0.836275,-0.36,1.74,-0.850634,2.926759
52.255000,-0.319100,-0.130700,-0.07,0.96,-0.080392,0.947549,-0.14,1.88,-0.245098,3.330450
52.288000,-0.321900,-0.096700,-0.07,1.03,-0.084314,1.045098,0.18,1.04,0.043253,2.177047
52.321000,-0.324600,-0.060300,-0.06,1.05,-0.065441,1.080882,0.40,-0.70,1.030854,-0.216263
52.355000,-0.326200,-0.024200,-0.04,0.99,-0.029657,1.023529,0.41,-2.74,0.929931,-3.157439
52.388000,-0.326800,0.008300,-0.03,0.86,-0.014216,0.872304,0.23,-4.38,-0.043253,-5.572376
52.421000,-0.327400,0.034500,-0.03,0.68,-0.023039,0.662745,0.05,-5.14,-0.389273,-6.473472
52.455000,-0.328400,0.053400,-0.03,0.49,-0.033824,0.458824,0.01,-5.07,-0.187428,-5.320069
52.488000,-0.329600,0.066200,-0.03,0.33,-0.034069,0.308578,0.12,-4.56,0.180219,-3.597174
52.522000,-0.330600,0.074700,-0.02,0.19,-0.022794,0.188480,0.26,-3.92,0.454152,-3.611592
52.555000,-0.331100,0.079000,-0.01,0.07,-0.006863,0.059314,0.29,-3.15,0.446943,-3.907151
52.588000,-0.331100,0.078900,0.00,-0.03,0.005392,-0.059559,0.18,-2.12,0.259516,-2.876298
52.622000,-0.330800,0.075600,0.01,-0.08,0.012500,-0.115441,-0.02,-0.89,0.122549,-0.367647
52.655000,-0.330400,0.071800,-0.00,-0.08,0.004412,-0.097304,-0.13,0.22,-0.576701,1.247116
52.688000,-0.330600,0.069300,-0.01,-0.05,-0.015441,-0.053431,-0.04,0.88,-0.482987,1.211073
52.722000,-0.331300,0.068200,-0.01,-0.01,-0.019853,-0.009804,0.15,0.96,0.266724,1.326413
52.755000,-0.331700,0.068600,0.00,0.02,0.002696,0.033578,0.28,0.67,0.958766,1.117359
52.788000,-0.331100,0.070200,0.02,0.03,0.026471,0.048529,0.26,0.27,0.346021,-0.245098
52.822000,-0.330100,0.071600,0.02,0.03,0.027941,0.031373,0.14,-0.06,-0.216263,-0.605536
52.855000,-0.329300,0.072400,0.02,0.03,0.019608,0.026225,0.06,-0.25,-0.201845,0.281142
52.888000,-0.328700,0.073400,0.02,0.02,0.019363,0.024755,0.08,-0.26,0.194637,-0.454152
52.922000,-0.327900,0.073900,0.03,0.01,0.027696,-0.000245,0.11,-0.08,0.266724,-0.886678
52.955000,-0.326800,0.073500,0.03,0.01,0.038235,-0.014706,0.07,0.19,0.302768,0.158593
52.988000,-0.325400,0.073300,0.03,0.02,0.037745,0.014951,-0.00,0.41,-0.317186,1.448962
53.022000,-0.324300,0.074600,0.03,0.04,0.030392,0.052206,-0.08,0.39,-0.072088,0.598328
53.055000,-0.323300,0.076600,0.03,0.05,0.027941,0.061520,-0.13,0.13,-0.086505,-0.021626
53.088000,-0.322400,0.078600,0.02,0.05,0.025490,0.054657,-0.17,-0.15,-0.072088,-0.353230
53.122000,-0.321600,0.080200,0.02,0.04,0.019608,0.036765,-0.21,-0.26,-0.273933,-0.648789
53.155000,-0.321100,0.081100,0.01,0.03,0.010539,0.018137,-0.22,-0.21,-0.252307,-0.374856
53.189000,-0.320900,0.081600,0.00,0.02,-0.000490,0.017892,-0.13,-0.10,-0.374856,0.324394
53.222000,-0.321100,0.082400,-0.00,0.02,-0.009804,0.026471,0.04,-0.04,-0.115340,0.100923
53.255000,-0.321400,0.083300,0.00,0.02,-0.001471,0.022304,0.19,-0.05,0.576701,-0.309977
53.288000,-0.321100,0.083900,0.01,0.02,0.016912,0.016912,0.23,-0.12,0.439735,0.021626
53.322000,-0.320300,0.084500,0.02,0.02,0.029902,0.018873,0.11,-0.25,0.288351,0.036044
53.355000,-0.319200,0.085100,0.02,0.01,0.029657,0.012500,-0.08,-0.42,-0.295559,-0.439735
53.388000,-0.318400,0.085200,0.02,-0.01,0.018137,-0.009804,-0.22,-0.63,-0.346021,-0.821799
53.422000,-0.318000,0.084400,0.01,-0.04,0.003922,-0.032843,-0.26,-0.83,-0.461361,-0.547866
53.455000,-0.318100,0.082900,-0.00,-0.07,-0.007108,-0.061275,-0.21,-0.90,-0.165802,-1.153403
53.489000,-0.318400,0.080100,-0.01,-0.10,-0.009314,-0.106127,-0.16,-0.73,0.014418,-1.376874
53.522000,-0.318700,0.075800,-0.01,-0.13,-0.007598,-0.140196,-0.16,-0.30,0.036044,-0.533449
53.555000,-0.319000,0.070900,-0.02,-0.13,-0.015441,-0.141667,-0.16,0.32,-0.482987,0.446943
53.589000,-0.319800,0.066500,-0.02,-0.10,-0.029412,-0.112010,-0.09,0.90,-0.273933,1.247116
53.622000,-0.320900,0.063500,-0.03,-0.06,-0.032843,-0.062745,0.03,1.23,0.086505,1.585928
53.655000,-0.321900,0.062300,-0.02,-0.01,-0.022059,-0.007353,0.15,1.19,0.490196,1.600346
53.688000,-0.322400,0.062900,-0.01,0.03,-0.012500,0.038725,0.21,0.74,0.050461,1.052480
53.722000,-0.322800,0.064700,-0.01,0.04,-0.009559,0.065441,0.20,0.02,0.165802,0.425317
53.755000,-0.323000,0.066900,-0.00,0.03,0.000490,0.048775,0.16,-0.67,0.389273,-1.391292
53.789000,-0.322800,0.067600,0.00,-0.01,0.006618,-0.010539,0.06,-0.99,-0.036044,-1.910323
53.822000,-0.322600,0.066200,0.01,-0.05,0.008333,-0.066667,-0.10,-0.80,0.129758,-1.254325
53.855000,-0.322300,0.063400,-0.00,-0.07,0.004902,-0.089461,-0.24,-0.26,-0.360438,-0.064879
53.889000,-0.322400,0.060500,-0.01,-0.07,-0.013235,-0.074755,-0.25,0.31,-0.648789,0.843426
53.922000,-0.323200,0.058500,-0.02,-0.04,-0.032108,-0.044363,-0.11,0.66,-0.382065,0.872261
53.955000,-0.324400,0.057500,-0.02,-0.02,-0.032353,-0.014216,0.06,0.69,0.374856,0.879469
53.989000,-0.325200,0.057500,-0.02,0.01,-0.010539,0.013971,0.10,0.49,0.785755,0.728085
54.022000,-0.325200,0.058300,-0.01,0.02,0.002206,0.027941,0.00,0.19,-0.108131,0.072088
54.055000,-0.325300,0.059200,-0.01,0.02,-0.012745,0.021569,-0.12,-0.05,-0.677624,-0.389273
54.089000,-0.326100,0.059700,-0.02,0.01,-0.030147,0.009804,-0.14,-0.15,-0.266724,-0.259516
54.122000,-0.327200,0.059900,-0.03,0.00,-0.030392,0.001961,-0.05,-0.14,0.216263,-0.187428
54.155000,-0.328100,0.059900,-0.03,0.00,-0.024755,0.001225,0.03,-0.12,0.079296,0.122549
54.189000,-0.328900,0.060000,-0.02,-0.00,-0.021814,0.002696,0.07,-0.12,0.093714,-0.079296
54.222000,-0.329600,0.060000,-0.02,-0.01,-0.020588,-0.005882,0.08,-0.12,-0.014418,-0.389273
54.256000,-0.330300,0.059600,-0.02,-0.01,-0.019363,-0.014461,0.12,-0.12,0.093714,-0.079296
54.289000,-0.330900,0.059100,-0.01,-0.01,-0.017157,-0.013480,0.21,-0.19,0.057670,0.108131
54.322000,-0.331400,0.058700,-0.00,-0.02,-0.008578,-0.009314,0.26,-0.50,0.454152,0.057670
54.356000,-0.331400,0.058300,0.01,-0.04,0.009804,-0.019853,0.19,-1.13,0.562284,-0.756920
54.389000,-0.330800,0.057000,0.01,-0.09,0.022059,-0.062255,0.00,-1.97,0.100923,-1.787774
54.422000,-0.330100,0.053600,0.01,-0.17,0.013725,-0.149020,-0.18,-2.76,-0.562284,-3.272780
54.455000,-0.330000,0.046500,-0.00,-0.28,-0.008824,-0.271569,-0.27,-3.30,-0.663206,-3.791811
54.489000,-0.330600,0.035100,-0.01,-0.40,-0.019363,-0.393382,-0.24,-3.54,0.050461,-3.337659
54.522000,-0.331200,0.019800,-0.02,-0.52,-0.016422,-0.508578,-0.12,-3.52,0.036044,-3.467416
54.556000,-0.331800,0.000500,-0.02,-0.64,-0.025735,-0.627451,0.06,-3.28,-0.526240,-3.489043
54.589000,-0.332900,-0.022800,-0.02,-0.74,-0.031863,-0.742157,0.27,-2.80,0.259516,-3.171857
54.622000,-0.333700,-0.049700,-0.00,-0.83,-0.008578,-0.831863,0.42,-2.02,1.030854,-2.061707
54.656000,-0.333400,-0.079000,0.01,-0.88,0.023284,-0.888971,0.43,-1.04,0.728085,-1.261534
54.689000,-0.332300,-0.109700,0.03,-0.90,0.034069,-0.905882,0.27,-0.18,-0.064879,0.288351
54.722000,-0.331200,-0.140100,0.03,-0.88,0.034559,-0.871814,0.03,0.25,0.122549,1.535467
54.756000,-0.330000,-0.168900,0.03,-0.87,0.032108,-0.828676,-0.15,0.22,-0.281142,0.771338
54.789000,-0.329100,-0.196900,0.02,-0.87,0.020588,-0.835784,-0.22,0.02,-0.360438,-1.110150
54.822000,-0.328600,-0.226000,0.01,-0.87,0.009559,-0.872059,-0.21,-0.02,-0.266724,-0.778547
54.856000,-0.328400,-0.255900,0.01,-0.88,0.003431,-0.873284,-0.16,0.21,-0.086505,0.699250
54.889000,-0.328300,-0.285100,0.00,-0.86,0.005147,-0.846078,-0.14,0.55,0.136967,0.792964
54.922000,-0.328100,-0.313400,-0.00,-0.83,0.000980,-0.819853,-0.12,0.73,-0.389273,0.756920
54.956000,-0.328300,-0.340800,-0.01,-0.81,-0.011520,-0.787255,-0.03,0.66,-0.281142,1.110150
54.989000,-0.328800,-0.367000,-0.01,-0.79,-0.015686,-0.759314,0.09,0.54,0.072088,0.446943
55.022000,-0.329200,-0.392700,0.00,-0.78,-0.002206,-0.762255,0.15,0.59,0.670415,-0.490196
55.056000,-0.328900,-0.418800,0.01,-0.76,0.017647,-0.763971,0.11,0.85,0.389273,0.569493
55.089000,-0.328200,-0.444200,0.01,-0.72,0.014951,-0.715931,0.04,1.18,-0.511822,2.141003
55.122000,-0.328000,-0.467300,0.01,-0.67,-0.000980,-0.650000,0.04,1.45,-0.302768,1.571511
55.156000,-0.328100,-0.488600,0.01,-0.62,0.002941,-0.610784,0.15,1.68,0.504614,0.836217
55.189000,-0.327700,-0.508800,0.02,-0.56,0.016422,-0.569363,0.34,1.99,0.237889,1.722895
55.223000,-0.327000,-0.527000,0.03,-0.49,0.024510,-0.494363,0.49,2.43,0.302768,2.645617
55.256000,-0.325900,-0.542200,0.05,-0.40,0.047794,-0.400490,0.52,2.88,1.030854,2.840254
55.289000,-0.323700,-0.554100,0.07,-0.30,0.077696,-0.295343,0.38,3.20,0.627163,3.323241
55.323000,-0.320800,-0.562200,0.08,-0.19,0.087745,-0.182108,0.05,3.45,-0.028835,3.294406
55.356000,-0.317900,-0.566500,0.08,-0.07,0.083333,-0.073775,-0.41,3.75,-0.230681,3.135813
55.389000,-0.315300,-0.567100,0.05,0.06,0.065686,0.043873,-0.80,4.05,-0.850634,3.871107
55.423000,-0.313700,-0.563200,0.02,0.20,0.019853,0.195588,-0.94,4.15,-1.751730,4.959631
55.456000,-0.314000,-0.553700,-0.02,0.35,-0.032598,0.359559,-0.79,3.90,-1.175029,4.491061
55.489000,-0.315600,-0.539100,-0.04,0.47,-0.050245,0.487500,-0.46,3.32,0.093714,2.991638
55.523000,-0.317200,-0.521000,-0.05,0.57,-0.047304,0.571078,-0.08,2.62,-0.007209,2.018454
55.556000,-0.318800,-0.500500,-0.04,0.64,-0.047059,0.635049,0.22,2.02,0.057670,1.809400
55.589000,-0.320300,-0.477900,-0.03,0.70,-0.037255,0.694363,0.41,1.51,0.533449,1.665225
55.623000,-0.321200,-0.453400,-0.01,0.75,-0.013480,0.744853,0.46,0.97,0.814591,1.247116
55.656000,-0.321200,-0.427500,0.00,0.77,0.012745,0.773039,0.35,0.43,0.648789,0.360438
55.689000,-0.320500,-0.401200,0.01,0.77,0.021569,0.764216,0.15,0.08,-0.129758,-0.792964
55.723000,-0.319900,-0.375700,0.01,0.76,0.013480,0.737500,-0.07,0.08,-0.281142,-0.598328
55.756000,-0.319600,-0.350800,0.01,0.77,0.005882,0.738235,-0.23,0.34,-0.158593,0.663206
55.789000,-0.319500,-0.325200,-0.00,0.79,-0.000490,0.769608,-0.28,0.63,-0.245098,1.081315
55.823000,-0.319700,-0.298400,-0.01,0.82,-0.015196,0.805882,-0.26,0.74,-0.576701,0.980392
55.856000,-0.320500,-0.270500,-0.02,0.84,-0.026471,0.831127,-0.24,0.73,-0.057670,0.497405
55.890000,-0.321400,-0.242000,-0.03,0.86,-0.025735,0.843382,-0.25,0.84,0.036044,0.295559
55.923000,-0.322300,-0.213100,-0.04,0.89,-0.030637,0.859069,-0.31,1.16,-0.353230,0.728085
55.956000,-0.323600,-0.183300,-0.05,0.94,-0.048529,0.903186,-0.36,1.59,-0.648789,1.867070
55.990000,-0.325600,-0.151400,-0.06,1.00,-0.065686,0.975245,-0.28,1.84,-0.331603,2.285179
56.023000,-0.328000,-0.116900,-0.07,1.07,-0.076716,1.054167,-0.05,1.51,-0.295559,2.285179
56.056000,-0.330700,-0.079800,-0.07,1.12,-0.078186,1.131373,0.22,0.33,0.252307,2.018454
56.090000,-0.333100,-0.040600,-0.05,1.11,-0.056863,1.153676,0.32,-1.58,0.937140,-0.973183
56.123000,-0.334500,-0.002600,-0.04,1.02,-0.027451,1.053186,0.19,-3.71,0.663206,-4.837082
56.156000,-0.335200,0.030000,-0.04,0.85,-0.022549,0.857598,-0.07,-5.42,-0.389273,-6.408593
56.190000,-0.336300,0.055300,-0.05,0.64,-0.045343,0.628922,-0.23,-6.22,-0.843426,-6.891580
56.223000,-0.338300,0.072700,-0.06,0.42,-0.068873,0.394118,-0.12,-6.07,-0.454152,-6.761822
56.256000,-0.340800,0.082400,-0.06,0.22,-0.075000,0.187255,0.18,-5.25,0.144175,-5.291234
56.290000,-0.343100,0.086000,-0.05,0.06,-0.050000,0.035784,0.37,-4.01,1.239908,-3.662053
56.323000,-0.344100,0.085300,-0.03,-0.05,-0.013480,-0.076225,0.28,-2.49,0.742503,-2.919550
56.356000,-0.344300,0.081300,-0.02,-0.11,-0.007843,-0.150735,0.01,-0.85,-0.403691,-1.304787
56.390000,-0.344900,0.075900,-0.03,-0.11,-0.029167,-0.143382,-0.20,0.59,-0.742503,1.694060
56.423000,-0.346300,0.072300,-0.04,-0.06,-0.051471,-0.062255,-0.20,1.44,-0.475779,2.811419
56.456000,-0.348200,0.071800,-0.05,0.01,-0.051471,0.028922,-0.03,1.45,0.432526,2.335640
56.490000,-0.349700,0.073900,-0.04,0.06,-0.042402,0.083088,0.18,0.76,0.050461,0.771338
56.523000,-0.351100,0.076900,-0.03,0.06,-0.038235,0.084069,0.29,-0.12,0.245098,-0.655998
56.557000,-0.352200,0.079200,-0.02,0.04,-0.022304,0.046078,0.27,-0.73,0.655998,-1.456171
56.590000,-0.352600,0.079900,-0.01,0.00,-0.003186,-0.003922,0.13,-0.92,0.382065,-1.355248
56.623000,-0.352600,0.079100,-0.01,-0.03,-0.003676,-0.034559,-0.02,-0.77,-0.396482,-0.454152
56.657000,-0.353000,0.077700,-0.02,-0.05,-0.020098,-0.050490,-0.06,-0.43,-0.475779,-0.533449
56.690000,-0.353900,0.075700,-0.02,-0.06,-0.029167,-0.067892,0.04,-0.01,-0.007209,-0.410900
56.723000,-0.354800,0.073300,-0.02,-0.05,-0.018873,-0.064461,0.19,0.40,0.569493,0.641580
56.756000,-0.355100,0.071600,-0.00,-0.03,-0.000245,-0.031618,0.27,0.73,0.454152,1.189446
56.790000,-0.354900,0.071200,0.01,0.00,0.008333,0.003431,0.26,0.94,0.057670,0.836217
56.823000,-0.354600,0.071800,0.01,0.04,0.009804,0.033088,0.24,0.96,0.072088,0.944348
56.857000,-0.354200,0.073500,0.02,0.07,0.014951,0.069853,0.25,0.81,0.252307,1.175029
56.890000,-0.353500,0.076500,0.03,0.09,0.029657,0.103431,0.20,0.52,0.569493,0.720877
56.923000,-0.352200,0.080300,0.04,0.11,0.043382,0.113235,0.03,0.14,0.180219,-0.129758
56.957000,-0.350700,0.084000,0.03,0.10,0.042157,0.104412,-0.23,-0.21,-0.259516,-0.346021
56.990000,-0.349500,0.087300,0.02,0.09,0.025245,0.087010,-0.43,-0.49,-0.713668,-0.641580
57.023000,-0.349100,0.089900,-0.00,0.07,-0.004167,0.069608,-0.44,-0.78,-0.929931,-0.389273
57.057000,-0.349700,0.092000,-0.01,0.04,-0.025245,0.052206,-0.28,-1.15,-0.252307,-0.728085
57.090000,-0.350600,0.093200,-0.02,-0.01,-0.023529,0.010784,-0.07,-1.49,0.302768,-1.744521
57.123000,-0.351200,0.092400,-0.02,-0.07,-0.012255,-0.066667,0.04,-1.55,0.288351,-2.652826
57.157000,-0.351500,0.088700,-0.01,-0.12,-0.009314,-0.141667,0.05,-1.14,-0.115340,-1.585928
57.190000,-0.351900,0.083200,-0.01,-0.15,-0.013480,-0.173039,0.02,-0.34,-0.093714,-0.245098
57.224000,-0.352400,0.077400,-0.01,-0.15,-0.015196,-0.161275,0.05,0.54,0.000000,0.893887
57.257000,-0.352900,0.072600,-0.01,-0.11,-0.013971,-0.115686,0.13,1.18,0.079296,1.701269
57.290000,-0.353300,0.069700,-0.01,-0.06,-0.008333,-0.055637,0.21,1.40,0.259516,1.751730
57.324000,-0.353400,0.068800,0.00,-0.01,0.004412,0.002451,0.27,1.16,0.461361,1.600346
57.357000,-0.353000,0.069700,0.01,0.03,0.016912,0.046569,0.27,0.57,0.252307,0.908304
57.390000,-0.352300,0.071600,0.02,0.04,0.023529,0.056373,0.18,-0.14,0.158593,-0.360438
57.423000,-0.351400,0.073100,0.03,0.01,0.032108,0.023284,0.02,-0.63,0.309977,-1.477797
57.457000,-0.350200,0.073000,0.03,-0.02,0.033088,-0.027941,-0.14,-0.71,-0.281142,-1.369666
57.490000,-0.349300,0.071400,0.02,-0.04,0.017892,-0.057598,-0.23,-0.44,-0.555075,-0.324394
57.524000,-0.349000,0.069400,0.01,-0.05,0.001471,-0.055147,-0.21,-0.05,-0.360438,0.396482
57.557000,-0.349100,0.067800,0.00,-0.04,-0.004657,-0.039216,-0.11,0.26,0.007209,0.461361
57.590000,-0.349200,0.066700,0.00,-0.03,0.001961,-0.029902,-0.02,0.47,0.317186,0.115340
57.624000,-0.349000,0.065800,0.00,-0.01,0.003676,-0.018873,0.04,0.53,-0.223472,0.598328
57.657000,-0.349000,0.065600,0.00,0.01,-0.001225,0.014216,0.09,0.41,-0.007209,1.239908
57.690000,-0.349000,0.066700,0.01,0.02,0.003676,0.042402,0.13,0.08,0.281142,0.281142
57.724000,-0.348700,0.068100,0.01,0.02,0.013480,0.029902,0.12,-0.28,0.266724,-0.951557
57.757000,-0.348100,0.068500,0.02,-0.00,0.022059,-0.005882,0.04,-0.46,0.201845,-1.009227
57.790000,-0.347300,0.067800,0.02,-0.02,0.020588,-0.029167,-0.05,-0.35,-0.288351,-0.324394
57.824000,-0.346800,0.066700,0.01,-0.03,0.007598,-0.034314,-0.09,-0.08,-0.396482,-0.000000
57.857000,-0.346700,0.065600,0.01,-0.02,0.004657,-0.027696,-0.09,0.15,0.223472,0.367647
57.890000,-0.346400,0.064900,0.01,-0.01,0.011520,-0.012745,-0.10,0.24,0.108131,0.461361
57.924000,-0.346000,0.064700,0.00,-0.00,0.008824,-0.002206,-0.14,0.17,-0.273933,0.151384
57.957000,-0.345900,0.064700,-0.00,-0.00,-0.004902,0.004167,-0.12,-0.04,-0.475779,0.209054
57.990000,-0.346300,0.064900,-0.01,-0.01,-0.015196,0.004167,0.01,-0.34,-0.086505,-0.252307
58.024000,-0.346800,0.064800,-0.01,-0.02,-0.012255,-0.013971,0.24,-0.71,0.259516,-0.800173
58.057000,-0.347000,0.063800,0.01,-0.05,0.002941,-0.045588,0.43,-1.14,0.619954,-1.038062
58.090000,-0.346500,0.061600,0.03,-0.10,0.028186,-0.083824,0.46,-1.69,0.814591,-1.254325
58.124000,-0.345100,0.057900,0.04,-0.16,0.052451,-0.138971,0.26,-2.41,0.547866,-2.054498
58.157000,-0.343100,0.051800,0.05,-0.25,0.060784,-0.225980,-0.08,-3.19,-0.086505,-3.099769
58.191000,-0.341200,0.042100,0.04,-0.38,0.046569,-0.354657,-0.37,-3.79,-0.720877,-4.404556
58.224000,-0.340100,0.027400,0.02,-0.52,0.015441,-0.511520,-0.42,-3.92,-1.016436,-4.664072
58.257000,-0.340100,0.007400,0.00,-0.65,-0.011029,-0.661029,-0.15,-3.55,-0.454152,-3.972030
58.291000,-0.340600,-0.017100,0.00,-0.76,-0.013725,-0.764216,0.30,-2.81,0.331603,-2.133795
58.324000,-0.340700,-0.044200,0.02,-0.84,0.016912,-0.833578,0.63,-1.87,1.391292,-2.025663
58.357000,-0.339300,-0.073600,0.05,-0.89,0.063235,-0.893873,0.65,-0.88,1.182238,-1.391292
58.391000,-0.336600,-0.104500,0.08,-0.90,0.087500,-0.907843,0.33,-0.01,0.223472,0.591119
58.424000,-0.333600,-0.134800,0.08,-0.88,0.088235,-0.867402,-0.14,0.53,-0.158593,1.593137
58.457000,-0.330800,-0.163400,0.06,-0.85,0.071814,-0.821324,-0.47,0.64,-0.800173,0.973183
58.491000,-0.328900,-0.190900,0.04,-0.83,0.035539,-0.802941,-0.50,0.38,-1.218281,0.129758
58.524000,-0.328300,-0.218200,0.02,-0.82,0.007353,-0.802696,-0.26,0.04,-0.346021,-0.079296
58.557000,-0.328100,-0.245600,0.02,-0.83,0.010294,-0.812500,0.04,-0.13,0.475779,-0.468570
58.591000,-0.327400,-0.273500,0.03,-0.84,0.033088,-0.827941,0.20,-0.06,0.756920,-0.374856
58.624000,-0.325900,-0.301800,0.04,-0.84,0.050000,-0.833824,0.14,0.16,0.173010,0.072088
58.657000,-0.324200,-0.330000,0.04,-0.83,0.045098,-0.819853,-0.03,0.39,-0.403691,0.728085
58.691000,-0.322900,-0.357400,0.04,-0.81,0.034559,-0.789951,-0.18,0.51,-0.165802,0.929931
58.724000,-0.321800,-0.383800,0.03,-0.79,0.031618,-0.770588,-0.28,0.52,-0.050461,0.201845
58.757000,-0.320800,-0.409900,0.02,-0.78,0.023284,-0.762500,-0.36,0.54,-0.454152,0.338812
58.791000,-0.320300,-0.435600,0.00,-0.76,0.006373,-0.748284,-0.32,0.64,-0.519031,0.511822
58.824000,-0.320400,-0.460700,-0.01,-0.73,-0.015441,-0.727206,-0.08,0.80,-0.684833,0.756920
58.858000,-0.321200,-0.484900,-0.01,-0.70,-0.024510,-0.689706,0.29,0.95,0.245098,1.384083
58.891000,-0.321700,-0.507600,0.01,-0.67,0.004902,-0.652696,0.51,1.20,1.398501,0.742503
58.924000,-0.320700,-0.529400,0.04,-0.63,0.053186,-0.633824,0.41,1.74,1.232699,0.547866
58.958000,-0.318400,-0.550400,0.05,-0.56,0.067892,-0.587990,0.11,2.53,-0.410900,2.314014
58.991000,-0.316500,-0.568700,0.04,-0.46,0.037255,-0.471569,-0.10,3.30,-1.182238,4.397347
59.024000,-0.315800,-0.582100,0.03,-0.33,0.015931,-0.319608,-0.08,3.78,0.036044,4.310842
59.057000,-0.315100,-0.590600,0.03,-0.20,0.030392,-0.190686,0.07,3.98,0.692042,3.287197
59.091000,-0.313700,-0.595200,0.04,-0.07,0.045833,-0.077941,0.18,4.06,0.151384,3.489043
59.124000,-0.312100,-0.595700,0.05,0.07,0.046814,0.057843,0.15,4.08,-0.036044,4.483852
59.158000,-0.310500,-0.591100,0.05,0.21,0.051716,0.213480,0.02,3.94,0.309977,4.505479
59.191000,-0.308600,-0.581400,0.05,0.34,0.056618,0.345588,-0.14,3.55,-0.079296,3.229527
59.224000,-0.306800,-0.567900,0.04,0.45,0.045098,0.448039,-0.27,2.88,-0.562284,2.854671
59.258000,-0.305600,-0.551100,0.03,0.53,0.027206,0.540686,-0.34,2.08,-0.439735,2.508651
59.291000,-0.304900,-0.531500,0.02,0.59,0.015441,0.599755,-0.32,1.38,-0.252307,0.915513
59.324000,-0.304500,-0.510800,0.01,0.62,0.009314,0.607843,-0.20,0.91,-0.144175,-0.245098
59.358000,-0.304300,-0.490200,0.00,0.64,-0.002941,0.615931,0.02,0.68,-0.519031,0.829008
59.391000,-0.304600,-0.468700,0.01,0.66,-0.006863,0.650735,0.28,0.55,0.360438,1.102941
59.424000,-0.304500,-0.446000,0.02,0.68,0.018137,0.679902,0.46,0.32,1.023645,0.533449
59.458000,-0.303300,-0.422700,0.04,0.69,0.049020,0.685784,0.43,-0.02,0.706459,-0.187428
59.491000,-0.301300,-0.399600,0.06,0.68,0.066176,0.669363,0.18,-0.25,0.273933,-0.728085
59.525000,-0.299000,-0.377300,0.06,0.66,0.064461,0.639951,-0.17,-0.22,-0.367647,-0.872261
59.558000,-0.297100,-0.355900,0.04,0.66,0.044853,0.629657,-0.45,-0.01,-0.728085,0.309977
59.591000,-0.296000,-0.334200,0.02,0.66,0.021814,0.650490,-0.58,0.27,-0.598328,0.778547
59.624000,-0.295600,-0.311700,0.00,0.68,0.001225,0.663235,-0.60,0.50,-0.612745,-0.014418
59.658000,-0.295900,-0.289100,-0.02,0.70,-0.017402,0.673529,-0.49,0.63,-0.497405,0.706459
59.691000,-0.296800,-0.265700,-0.03,0.72,-0.040196,0.707598,-0.25,0.68,-0.778547,1.203864
59.724000,-0.298500,-0.241000,-0.04,0.74,-0.051225,0.739706,0.01,0.76,0.194637,0.605536
59.758000,-0.300000,-0.215600,-0.03,0.77,-0.031618,0.747059,0.09,1.06,0.857843,-0.043253
59.791000,-0.300600,-0.190100,-0.02,0.80,-0.005392,0.761520,-0.11,1.68,0.519031,1.074106
59.825000,-0.300700,-0.163300,-0.03,0.87,-0.013725,0.826961,-0.43,2.40,-1.023645,2.797001
59.858000,-0.301900,-0.133300,-0.06,0.97,-0.062010,0.950000,-0.57,2.64,-1.607555,4.238754
59.891000,-0.304800,-0.098600,-0.08,1.08,-0.096324,1.085784,-0.39,1.85,-0.309977,3.431373
59.925000,-0.308100,-0.060100,-0.09,1.13,-0.093382,1.162745,-0.04,-0.06,0.396482,0.865052
59.958000,-0.311000,-0.020700,-0.08,1.09,-0.078186,1.130882,0.20,-2.56,0.439735,-2.797001
59.991000,-0.313400,0.015500,-0.07,0.95,-0.062010,0.976716,0.22,-4.86,0.468570,-6.105825
60.025000,-0.315300,0.044800,-0.06,0.74,-0.053922,0.737500,0.10,-6.28,-0.014418,-7.677336
60.058000,-0.317200,0.065400,-0.06,0.50,-0.060294,0.477696,-0.00,-6.60,-0.302768,-7.360150
60.091000,-0.319400,0.077600,-0.06,0.28,-0.065686,0.251961,-0.04,-6.04,0.014418,-5.853518
60.125000,-0.321600,0.083000,-0.07,0.09,-0.062990,0.070588,-0.03,-4.94,0.108131,-4.844291
60.158000,-0.323700,0.082800,-0.07,-0.05,-0.062990,-0.077941,-0.03,-3.48,-0.108131,-3.849481
60.191000,-0.325900,0.078200,-0.07,-0.15,-0.064706,-0.185539,-0.04,-1.76,0.014418,-2.342849
60.225000,-0.328100,0.071000,-0.07,-0.18,-0.065686,-0.217892,-0.01,0.01,-0.086505,0.482987
60.258000,-0.330400,0.064300,-0.07,-0.14,-0.072059,-0.161765,0.09,1.43,-0.230681,2.638408
60.291000,-0.332900,0.060500,-0.06,-0.06,-0.067892,-0.060294,0.24,2.11,0.482987,3.114187
60.325000,-0.334900,0.060200,-0.05,0.02,-0.051716,0.038725,0.35,1.89,0.425317,2.566321
60.358000,-0.336400,0.062800,-0.04,0.08,-0.035049,0.106863,0.31,0.99,0.540657,1.340830
60.391000,-0.337300,0.066900,-0.03,0.09,-0.018382,0.122549,0.09,-0.10,0.382065,-0.446943
60.425000,-0.337800,0.070500,-0.03,0.07,-0.015441,0.075490,-0.19,-0.91,-0.252307,-2.148212
60.458000,-0.338600,0.071800,-0.04,0.02,-0.038725,0.007353,-0.32,-1.19,-1.038062,-1.672434
60.491000,-0.340500,0.071200,-0.06,-0.03,-0.070098,-0.037500,-0.18,-1.01,-0.663206,-0.944348
60.525000,-0.343100,0.069500,-0.06,-0.05,-0.073284,-0.057598,0.14,-0.61,0.482987,-0.295559
60.558000,-0.345200,0.067400,-0.05,-0.06,-0.047549,-0.069118,0.40,-0.16,0.922722,-0.389273
60.592000,-0.346300,0.064900,-0.03,-0.06,-0.020098,-0.074265,0.45,0.25,0.619954,0.151384
60.625000,-0.346700,0.062600,-0.01,-0.05,-0.007353,-0.053431,0.33,0.57,0.144175,1.023645
60.658000,-0.346900,0.061400,-0.00,-0.02,-0.004167,-0.020588,0.13,0.70,0.079296,0.850634
60.692000,-0.347000,0.061200,-0.00,0.01,-0.000490,0.012010,-0.06,0.60,0.115340,1.016436
60.725000,-0.347000,0.062100,-0.01,0.02,-0.002451,0.034804,-0.17,0.37,-0.259516,0.259516
60.758000,-0.347300,0.063300,-0.02,0.03,-0.019363,0.027941,-0.14,0.19,-0.670415,-0.547866
60.792000,-0.348300,0.064000,-0.02,0.03,-0.036275,0.022794,0.02,0.13,-0.216263,0.309977
60.825000,-0.349500,0.065000,-0.02,0.04,-0.024020,0.035784,0.20,0.17,0.879469,0.374856
60.858000,-0.349800,0.066400,-0.01,0.04,0.002451,0.043137,0.27,0.27,0.547866,0.057670
60.892000,-0.349500,0.067900,0.00,0.05,0.008824,0.045343,0.24,0.35,-0.144175,0.136967
60.925000,-0.349300,0.069600,0.01,0.07,0.004902,0.060294,0.17,0.34,-0.014418,0.735294
60.958000,-0.349100,0.072100,0.01,0.08,0.009314,0.087990,0.12,0.11,0.273933,0.771338
60.992000,-0.348600,0.075400,0.02,0.08,0.021814,0.098284,0.05,-0.30,0.396482,-0.252307
61.025000,-0.347700,0.078400,0.02,0.06,0.025735,0.069363,-0.06,-0.69,-0.194637,-1.376874
61.058000,-0.347000,0.079900,0.01,0.03,0.013235,0.018137,-0.17,-0.83,-0.475779,-1.470588
61.092000,-0.346800,0.079800,0.01,-0.00,0.001961,-0.013725,-0.24,-0.75,-0.158593,-0.374856
61.125000,-0.346800,0.079200,-0.00,-0.02,-0.000980,-0.019853,-0.24,-0.64,-0.057670,-0.108131
61.158000,-0.346900,0.078400,-0.01,-0.04,-0.007843,-0.033578,-0.18,-0.66,-0.360438,-0.728085
61.192000,-0.347400,0.076800,-0.02,-0.06,-0.024510,-0.059314,-0.07,-0.75,-0.519031,-0.764129
61.225000,-0.348400,0.074300,-0.02,-0.09,-0.022549,-0.090686,0.00,-0.71,0.619954,-1.066897
61.259000,-0.348800,0.070600,-0.01,-0.12,-0.004657,-0.128431,0.02,-0.36,0.295559,-1.038062
61.292000,-0.348900,0.065800,-0.01,-0.13,-0.009069,-0.144608,-0.00,0.25,-0.511822,0.173010
61.325000,-0.349500,0.061200,-0.02,-0.10,-0.022549,-0.117892,0.02,0.91,-0.187428,1.348039
61.358000,-0.350300,0.058100,-0.02,-0.06,-0.020833,-0.061520,0.11,1.32,0.281142,1.867070
61.392000,-0.350800,0.057100,-0.01,-0.00,-0.007108,0.001961,0.20,1.29,0.468570,1.773356
61.425000,-0.350800,0.058100,0.00,0.04,0.003922,0.053431,0.21,0.85,0.158593,1.167820
61.458000,-0.350600,0.060400,0.01,0.06,0.007598,0.072794,0.18,0.21,0.079296,-0.036044
61.492000,-0.350300,0.062700,0.01,0.05,0.010049,0.059069,0.16,-0.39,0.079296,-0.713668
61.525000,-0.349900,0.064200,0.02,0.02,0.013725,0.025735,0.13,-0.76,0.158593,-1.175029
61.559000,-0.349300,0.064400,0.02,-0.01,0.026225,-0.011029,0.02,-0.82,0.511822,-0.944348
61.592000,-0.348200,0.063500,0.02,-0.04,0.031127,-0.043137,-0.12,-0.62,-0.281142,-0.908304
61.625000,-0.347400,0.061600,0.01,-0.05,0.011520,-0.063480,-0.18,-0.27,-0.771338,-0.252307
61.659000,-0.347400,0.059400,0.00,-0.06,-0.005882,-0.062745,-0.13,0.12,-0.173010,0.273933
61.692000,-0.347600,0.057500,0.00,-0.04,-0.000980,-0.046569,-0.01,0.44,0.403691,0.634371
61.725000,-0.347400,0.056300,0.01,-0.02,0.010049,-0.025735,0.06,0.63,0.180219,0.583910
61.759000,-0.347000,0.055800,0.01,0.00,0.011029,-0.000980,0.03,0.63,-0.108131,0.879469
61.792000,-0.346700,0.056300,0.01,0.02,0.007108,0.033578,-0.02,0.38,-0.093714,1.045271
61.825000,-0.346500,0.057900,0.01,0.03,0.005882,0.050980,-0.01,-0.03,0.014418,-0.100923
61.859000,-0.346300,0.059400,0.01,0.02,0.003922,0.030637,0.06,-0.38,-0.115340,-1.016436
61.892000,-0.346200,0.059800,0.01,-0.00,0.004167,-0.007843,0.14,-0.44,0.165802,-1.110150
61.925000,-0.345900,0.059000,0.02,-0.02,0.017892,-0.032843,0.14,-0.21,0.583910,-0.273933
61.959000,-0.345000,0.057900,0.02,-0.02,0.030392,-0.022794,0.06,0.08,0.086505,0.785755
61.992000,-0.344000,0.057600,0.02,-0.00,0.024510,0.001961,-0.03,0.18,-0.389273,0.547866
62.025000,-0.343400,0.057900,0.02,0.00,0.011765,0.011275,-0.03,0.06,-0.288351,-0.014418
62.059000,-0.343100,0.058200,0.02,0.00,0.010294,0.003676,0.08,-0.19,0.201845,-0.382065
62.092000,-0.342600,0.058100,0.02,-0.01,0.018382,-0.006127,0.22,-0.47,0.252307,-0.209054
62.125000,-0.341800,0.057700,0.03,-0.03,0.030637,-0.023039,0.28,-0.77,0.454152,-0.807382
62.159000,-0.340500,0.056400,0.04,-0.06,0.044853,-0.052696,0.21,-1.18,0.353230,-0.929931
62.192000,-0.338800,0.054000,0.05,-0.10,0.054902,-0.090686,0.04,-1.81,0.201845,-1.355248
62.226000,-0.336900,0.050000,0.05,-0.17,0.051471,-0.147549,-0.16,-2.65,-0.389273,-2.090542
62.259000,-0.335400,0.043500,0.04,-0.28,0.038725,-0.248284,-0.30,-3.45,-0.331603,-3.856690
62.292000,-0.334300,0.032600,0.02,-0.41,0.023775,-0.401716,-0.28,-3.86,-0.540657,-4.981257
62.326000,-0.333800,0.016100,0.01,-0.55,0.005147,-0.563971,-0.03,-3.71,-0.482987,-4.332468
62.359000,-0.333800,-0.005300,0.02,-0.67,-0.000490,-0.677941,0.35,-3.14,0.230681,-2.393310
62.392000,-0.333500,-0.029600,0.04,-0.76,0.028186,-0.752941,0.66,-2.41,1.391292,-2.148212
62.426000,-0.331700,-0.056400,0.07,-0.83,0.076225,-0.825245,0.69,-1.64,1.275952,-2.054498
62.459000,-0.328500,-0.085500,0.09,-0.87,0.103922,-0.880392,0.43,-0.85,0.317186,-1.081315
62.492000,-0.324900,-0.115800,0.10,-0.89,0.104902,-0.889706,-0.02,-0.15,-0.201845,0.504614
62.526000,-0.321500,-0.145600,0.09,-0.88,0.096569,-0.859069,-0.46,0.23,-0.302768,1.131776
62.559000,-0.318500,-0.174200,0.07,-0.86,0.073284,-0.827941,-0.68,0.19,-1.074106,0.562284
62.592000,-0.316700,-0.202200,0.04,-0.86,0.028922,-0.828922,-0.58,-0.07,-1.398501,-0.591119
62.626000,-0.316400,-0.230800,0.02,-0.87,-0.003676,-0.853431,-0.24,-0.23,-0.382065,-0.735294
62.659000,-0.316500,-0.260200,0.02,-0.88,0.012255,-0.873284,0.05,-0.06,1.196655,-0.367647
62.692000,-0.315400,-0.290000,0.03,-0.88,0.045588,-0.875980,0.11,0.36,0.562284,0.245098
62.726000,-0.313700,-0.319500,0.03,-0.86,0.044608,-0.853922,0.00,0.77,-0.591119,1.052480
62.759000,-0.312600,-0.347800,0.03,-0.82,0.017892,-0.803922,-0.09,1.00,-0.800173,1.758939
62.792000,-0.312300,-0.374200,0.02,-0.78,0.012990,-0.758578,-0.16,1.01,0.526240,0.829008
62.826000,-0.311500,-0.399600,0.02,-0.75,0.034804,-0.738480,-0.33,0.91,0.547866,0.454152
62.859000,-0.310200,-0.424400,0.01,-0.73,0.028186,-0.713971,-0.54,0.81,-1.002018,1.002018
62.893000,-0.310000,-0.448100,-0.02,-0.70,-0.024755,-0.682843,-0.51,0.72,-1.895905,0.778547
62.926000,-0.311800,-0.470900,-0.04,-0.68,-0.071078,-0.659314,-0.15,0.63,-0.591119,0.605536
62.959000,-0.314200,-0.493000,-0.03,-0.66,-0.049020,-0.641176,0.31,0.64,1.758939,0.446943
62.992000,-0.314800,-0.514600,-0.01,-0.64,0.007843,-0.636275,0.54,0.91,1.297578,-0.043253
63.026000,-0.314000,-0.536100,0.01,-0.61,0.024265,-0.616912,0.47,1.52,-0.295559,1.304787
63.059000,-0.313400,-0.556100,0.02,-0.55,0.013971,-0.552206,0.29,2.38,-0.136967,2.458189
63.092000,-0.312900,-0.573300,0.03,-0.45,0.024265,-0.457843,0.18,3.34,0.699250,3.085352
63.126000,-0.311700,-0.586900,0.03,-0.32,0.040686,-0.335784,0.18,4.16,0.173010,4.137832
63.159000,-0.310300,-0.595700,0.04,-0.17,0.036275,-0.169853,0.25,4.67,-0.346021,5.500288
63.193000,-0.309200,-0.598300,0.05,0.00,0.034559,0.010049,0.32,4.78,0.338812,4.938005
63.226000,-0.307700,-0.595200,0.06,0.16,0.062010,0.168627,0.29,4.47,1.160611,4.397347
63.259000,-0.305000,-0.587000,0.07,0.31,0.088971,0.314461,0.13,3.84,0.281142,4.130623
63.293000,-0.302000,-0.574100,0.07,0.42,0.076716,0.435539,-0.08,3.05,-0.901096,2.933968
63.326000,-0.299900,-0.557800,0.06,0.51,0.053186,0.516422,-0.26,2.27,-0.353230,1.867070
63.359000,-0.298200,-0.539300,0.05,0.57,0.053186,0.569363,-0.35,1.69,0.266724,1.290369
63.393000,-0.296300,-0.519300,0.04,0.61,0.051961,0.601471,-0.37,1.39,-0.432526,0.692042
63.426000,-0.294900,-0.498400,0.03,0.66,0.022304,0.633333,-0.30,1.20,-1.175029,1.283160
63.459000,-0.294700,-0.476000,0.02,0.70,0.001716,0.695343,-0.12,0.83,0.050461,2.184256
63.493000,-0.294500,-0.451300,0.02,0.72,0.011765,0.742157,0.07,0.24,0.461361,0.360438
63.526000,-0.293800,-0.426200,0.03,0.72,0.030637,0.717892,0.09,-0.31,0.569493,-1.636390
63.559000,-0.292500,-0.402800,0.03,0.69,0.041912,0.662010,-0.08,-0.46,0.021626,-1.391292
63.593000,-0.291200,-0.380900,0.02,0.67,0.026716,0.638235,-0.24,-0.19,-0.857843,0.043253
63.626000,-0.290800,-0.359000,0.01,0.68,-0.001471,0.655392,-0.23,0.25,-0.663206,0.850634
63.659000,-0.291100,-0.336200,0.00,0.69,-0.007108,0.683088,-0.11,0.52,0.324394,0.699250
63.693000,-0.291100,-0.312600,0.00,0.72,0.007108,0.703676,-0.01,0.58,0.396482,0.511822
63.726000,-0.290700,-0.288400,0.01,0.73,0.010539,0.719118,-0.01,0.59,-0.209054,0.418108
63.759000,-0.290500,-0.263700,0.00,0.75,0.000980,0.734559,-0.05,0.70,-0.288351,0.511822
63.793000,-0.290600,-0.238400,-0.00,0.78,-0.003922,0.753431,-0.09,0.93,0.014418,0.648789
63.826000,-0.290700,-0.212300,-0.00,0.81,-0.001225,0.788971,-0.16,1.24,0.108131,1.434544
63.860000,-0.290700,-0.184600,-0.01,0.86,0.000980,0.838725,-0.28,1.57,-0.043253,1.456171
63.893000,-0.290800,-0.155200,-0.02,0.92,-0.014461,0.891912,-0.38,1.80,-0.843426,1.708478
63.926000,-0.291800,-0.123800,-0.04,0.98,-0.043382,0.960294,-0.37,1.67,-0.742503,2.292388
63.960000,-0.293600,-0.089800,-0.05,1.05,-0.055147,1.044118,-0.25,0.81,0.050461,2.422145
63.993000,-0.295400,-0.053200,-0.05,1.06,-0.051225,1.095588,-0.12,-0.90,0.108131,0.302768
64.026000,-0.297100,-0.016400,-0.05,1.00,-0.050980,1.042157,-0.08,-3.05,-0.100923,-3.517878
64.060000,-0.298900,0.016400,-0.06,0.85,-0.053922,0.865196,-0.09,-4.87,-0.072088,-6.617647
64.093000,-0.300800,0.041800,-0.06,0.65,-0.060294,0.630637,-0.05,-5.82,-0.288351,-6.855536
64.126000,-0.303000,0.059400,-0.06,0.44,-0.068382,0.414216,0.06,-5.82,-0.122549,-5.781430
64.160000,-0.305300,0.070300,-0.06,0.25,-0.060049,0.231373,0.13,-5.20,0.583910,-5.002884
64.193000,-0.307000,0.075400,-0.05,0.09,-0.042157,0.070098,0.09,-4.24,0.374856,-4.455017
64.226000,-0.308300,0.075400,-0.05,-0.04,-0.038725,-0.063480,-0.03,-3.04,-0.187428,-3.323241
64.260000,-0.309800,0.071600,-0.05,-0.12,-0.052941,-0.150735,-0.11,-1.60,-0.576701,-1.751730
64.293000,-0.311900,0.065800,-0.06,-0.15,-0.066912,-0.179167,-0.05,-0.11,-0.180219,0.093714
64.326000,-0.314200,0.060100,-0.06,-0.12,-0.065196,-0.143873,0.10,1.09,0.273933,1.895905
64.360000,-0.316200,0.056500,-0.05,-0.06,-0.050000,-0.062745,0.23,1.67,0.562284,2.696078
64.393000,-0.317600,0.055900,-0.04,0.01,-0.035539,0.024020,0.24,1.53,0.252307,2.234717
64.426000,-0.318700,0.057800,-0.03,0.05,-0.030147,0.077941,0.16,0.86,0.079296,0.865052
64.460000,-0.319700,0.060700,-0.03,0.07,-0.029167,0.083088,0.05,0.04,-0.007209,-0.497405
64.493000,-0.320700,0.063100,-0.03,0.05,-0.029167,0.056127,-0.02,-0.58,0.007209,-0.987601
64.527000,-0.321700,0.064400,-0.03,0.02,-0.030637,0.020833,-0.07,-0.86,-0.093714,-1.045271
64.560000,-0.322800,0.064500,-0.04,-0.01,-0.033578,-0.015441,-0.12,-0.80,-0.079296,-1.059689
64.593000,-0.324000,0.063400,-0.04,-0.04,-0.037745,-0.048529,-0.14,-0.47,-0.173010,-0.821799
64.627000,-0.325400,0.061400,-0.05,-0.05,-0.045833,-0.063480,-0.11,-0.01,-0.281142,-0.007209
64.660000,-0.327100,0.059400,-0.05,-0.04,-0.052696,-0.046814,-0.04,0.40,-0.093714,0.929931
64.693000,-0.328900,0.058400,-0.05,-0.02,-0.050980,-0.012010,0.06,0.62,0.187428,1.002018
64.726000,-0.330500,0.058500,-0.04,0.01,-0.042157,0.011275,0.16,0.64,0.288351,0.374856
64.760000,-0.331800,0.059100,-0.04,0.03,-0.038725,0.027696,0.22,0.49,-0.057670,0.627163
64.793000,-0.333100,0.060400,-0.03,0.04,-0.031863,0.049510,0.23,0.29,0.475779,0.576701
64.827000,-0.333900,0.062300,-0.02,0.05,-0.016176,0.053676,0.20,0.19,0.374856,-0.324394
64.860000,-0.334300,0.063900,-0.02,0.05,-0.012500,0.039951,0.18,0.21,-0.136967,-0.338812
64.893000,-0.334800,0.065200,-0.01,0.06,-0.014461,0.047304,0.17,0.31,0.079296,0.771338
64.927000,-0.335200,0.067300,-0.00,0.07,-0.006618,0.074510,0.14,0.34,0.367647,0.720877
64.960000,-0.335200,0.070200,0.00,0.09,0.007598,0.093873,0.03,0.18,0.396482,0.367647
64.993000,-0.334800,0.073500,0.00,0.09,0.010294,0.095098,-0.10,-0.11,-0.273933,-0.288351
65.027000,-0.334700,0.076500,-0.01,0.08,-0.009069,0.080392,-0.14,-0.40,-0.771338,-0.533449
65.060000,-0.335400,0.078900,-0.01,0.06,-0.027206,0.060784,-0.04,-0.60,-0.194637,-0.605536
65.093000,-0.336300,0.080600,-0.01,0.04,-0.017892,0.039216,0.10,-0.66,0.684833,-0.677624
65.127000,-0.336500,0.081500,-0.00,0.01,0.003676,0.009804,0.12,-0.54,0.468570,-1.009227
65.160000,-0.336200,0.081300,0.00,-0.00,0.008088,-0.018873,0.04,-0.26,-0.209054,-0.569493
65.194000,-0.336100,0.080500,-0.00,-0.01,-0.003186,-0.017892,-0.03,0.03,-0.382065,0.598328
65.227000,-0.336400,0.080300,-0.01,0.00,-0.012255,0.005392,0.00,0.16,-0.100923,0.648789
65.260000,-0.336800,0.080800,-0.00,0.01,-0.007108,0.020343,0.06,0.00,0.382065,0.180219
65.293000,-0.336800,0.081500,0.00,0.01,0.007598,0.017647,0.03,-0.39,0.396482,-0.346021
65.327000,-0.336400,0.081800,0.00,-0.01,0.009804,-0.002941,-0.08,-0.82,-0.288351,-0.865052
65.360000,-0.336300,0.081100,-0.00,-0.05,-0.006373,-0.041912,-0.18,-1.06,-0.576701,-1.405709
65.393000,-0.336800,0.078800,-0.01,-0.09,-0.017647,-0.097304,-0.20,-0.89,-0.057670,-1.737313
65.427000,-0.337400,0.074600,-0.02,-0.12,-0.017157,-0.143873,-0.12,-0.28,0.028835,-0.843426
65.460000,-0.338000,0.069500,-0.02,-0.12,-0.022304,-0.143137,0.02,0.56,-0.309977,0.908304
65.494000,-0.338900,0.065400,-0.02,-0.08,-0.027451,-0.089951,0.18,1.22,0.072088,2.083333
65.527000,-0.339700,0.063600,-0.01,-0.02,-0.014706,-0.016912,0.30,1.42,0.648789,2.054498
65.560000,-0.339800,0.064100,0.00,0.03,0.008824,0.039461,0.32,1.17,0.648789,1.203864
65.594000,-0.339200,0.066000,0.02,0.06,0.020833,0.067892,0.22,0.64,0.050461,0.497405
65.627000,-0.338500,0.068500,0.02,0.07,0.020833,0.077941,0.05,0.06,-0.007209,0.100923
65.660000,-0.337800,0.071100,0.02,0.06,0.021814,0.071324,-0.11,-0.45,0.036044,-0.511822
65.694000,-0.337100,0.073100,0.01,0.04,0.013971,0.039706,-0.20,-0.77,-0.482987,-1.283160
65.727000,-0.336900,0.073700,0.00,0.00,0.000735,-0.000980,-0.21,-0.82,-0.252307,-1.038062
65.760000,-0.337000,0.073100,-0.00,-0.03,-0.006373,-0.035049,-0.15,-0.57,-0.173010,-0.915513
65.794000,-0.337300,0.071500,-0.01,-0.04,-0.011029,-0.052451,-0.02,-0.12,-0.093714,-0.072088
65.827000,-0.337700,0.069800,-0.01,-0.03,-0.012010,-0.044118,0.08,0.36,0.064879,0.533449
65.861000,-0.338000,0.068700,-0.00,-0.01,0.000000,-0.017647,0.09,0.65,0.591119,0.980392
65.894000,-0.337700,0.068700,0.00,0.02,0.013235,0.018627,0.03,0.66,0.100923,1.081315
65.927000,-0.337300,0.069900,0.00,0.04,0.003431,0.049020,-0.01,0.37,-0.605536,0.634371
65.960000,-0.337500,0.071800,-0.00,0.04,-0.009804,0.056618,0.01,-0.08,-0.086505,-0.194637
65.994000,-0.337800,0.073500,0.00,0.03,-0.004167,0.040931,0.06,-0.47,0.382065,-0.699250
66.027000,-0.337700,0.074400,0.01,0.01,0.010294,0.007598,0.06,-0.63,0.389273,-1.189446
66.060000,-0.337200,0.074000,0.01,-0.02,0.013725,-0.027941,-0.02,-0.46,-0.201845,-0.807382
66.094000,-0.336900,0.072700,0.00,-0.03,0.002941,-0.044118,-0.08,-0.07,-0.374856,-0.100923
66.127000,-0.337000,0.071300,-0.00,-0.02,-0.007598,-0.030392,-0.01,0.31,-0.194637,0.850634
66.161000,-0.337300,0.070800,-0.00,-0.00,-0.006373,-0.000980,0.15,0.48,0.273933,0.792964
66.194000,-0.337300,0.071200,0.01,0.02,0.008333,0.024265,0.27,0.37,0.547866,0.641580
66.227000,-0.336700,0.072300,0.02,0.03,0.026471,0.035049,0.27,0.01,0.461361,-0.021626
66.261000,-0.335600,0.073400,0.03,0.02,0.033824,0.029167,0.19,-0.51,-0.028835,-0.324394
66.294000,-0.334500,0.074100,0.03,-0.01,0.030392,0.008333,0.09,-1.12,-0.115340,-0.937140
66.327000,-0.333500,0.073700,0.03,-0.05,0.031863,-0.036765,-0.01,-1.79,0.201845,-1.730104
66.361000,-0.332300,0.071300,0.03,-0.12,0.038480,-0.109559,-0.11,-2.45,0.122549,-2.530277
66.394000,-0.331000,0.066000,0.03,-0.22,0.032353,-0.204657,-0.17,-3.05,-0.475779,-3.034890
66.427000,-0.330200,0.057200,0.02,-0.33,0.014951,-0.315196,-0.13,-3.57,-0.468570,-3.460208
66.461000,-0.329900,0.044400,0.02,-0.46,0.006127,-0.439706,0.04,-3.89,-0.007209,-3.878316
66.494000,-0.329600,0.027100,0.02,-0.60,0.016422,-0.585294,0.28,-3.85,0.569493,-4.599193
66.527000,-0.328700,0.004600,0.04,-0.73,0.033578,-0.734559,0.48,-3.38,0.410900,-3.986448
66.561000,-0.327300,-0.022400,0.06,-0.83,0.050245,-0.837745,0.56,-2.52,0.598328,-2.076125
66.594000,-0.325200,-0.051900,0.08,-0.90,0.076961,-0.897059,0.45,-1.40,0.922722,-1.485006
66.627000,-0.322100,-0.083100,0.09,-0.93,0.102451,-0.936275,0.16,-0.28,0.475779,-0.706459
66.661000,-0.318500,-0.115000,0.09,-0.91,0.100735,-0.921078,-0.19,0.51,-0.569493,1.585928
66.694000,-0.315500,-0.145200,0.07,-0.88,0.073775,-0.848284,-0.40,0.76,-0.915513,2.371684
66.727000,-0.313500,-0.172900,0.06,-0.85,0.045833,-0.800000,-0.35,0.55,-0.641580,0.302768
66.761000,-0.312200,-0.200200,0.05,-0.84,0.037255,-0.817892,-0.14,0.24,0.129758,-1.131776
66.794000,-0.310800,-0.228600,0.05,-0.84,0.044853,-0.841667,0.04,0.20,0.266724,-0.086505
66.827000,-0.309100,-0.257100,0.05,-0.83,0.057108,-0.828186,0.03,0.41,0.396482,0.829008
66.861000,-0.307000,-0.284700,0.05,-0.81,0.061275,-0.793627,-0.12,0.62,-0.187428,1.095732
66.894000,-0.305100,-0.311100,0.05,-0.79,0.047794,-0.764216,-0.29,0.69,-0.555075,0.591119
66.928000,-0.303800,-0.336800,0.03,-0.77,0.030147,-0.750000,-0.42,0.74,-0.439735,0.302768
66.961000,-0.303000,-0.362100,0.02,-0.74,0.019853,-0.736765,-0.48,0.86,-0.209054,0.562284
66.994000,-0.302500,-0.386700,0.00,-0.71,0.004167,-0.702451,-0.48,0.94,-0.728085,1.441753
67.027000,-0.302800,-0.409700,-0.02,-0.67,-0.022549,-0.648039,-0.43,0.88,-0.749712,1.585928
67.061000,-0.303900,-0.431000,-0.03,-0.65,-0.033578,-0.619363,-0.31,0.75,0.079296,0.079296
67.094000,-0.305000,-0.452100,-0.04,-0.63,-0.036275,-0.623284,-0.11,0.66,-0.288351,-0.108131
67.127000,-0.306400,-0.473200,-0.04,-0.61,-0.046569,-0.604657,0.16,0.64,-0.230681,1.218281
67.161000,-0.308000,-0.493000,-0.03,-0.58,-0.040441,-0.559804,0.38,0.71,0.627163,1.225490
67.194000,-0.308900,-0.511500,-0.01,-0.56,-0.006373,-0.544363,0.48,0.97,1.239908,-0.252307
67.228000,-0.308500,-0.530100,0.01,-0.53,0.019363,-0.543137,0.40,1.48,0.209054,0.591119
67.261000,-0.307800,-0.547900,0.02,-0.47,0.021078,-0.485539,0.20,2.23,-0.028835,2.789792
67.294000,-0.307100,-0.562600,0.02,-0.38,0.022794,-0.376716,0.02,3.05,0.122549,3.438581
67.328000,-0.306300,-0.573400,0.02,-0.26,0.019853,-0.263971,-0.02,3.78,-0.295559,3.207901
67.361000,-0.305800,-0.580400,0.02,-0.12,0.010049,-0.140931,0.05,4.34,-0.209054,4.130623
67.394000,-0.305500,-0.582600,0.02,0.03,0.012745,0.022549,0.13,4.62,0.374856,5.392157
67.428000,-0.304800,-0.578700,0.03,0.19,0.030392,0.203922,0.13,4.48,0.576701,5.089389
67.461000,-0.303500,-0.569000,0.03,0.34,0.040686,0.357598,0.01,3.87,-0.014418,3.885525
67.494000,-0.302200,-0.554800,0.03,0.46,0.033824,0.472549,-0.13,2.96,-0.360438,2.869089
67.528000,-0.301300,-0.537300,0.02,0.54,0.016912,0.548284,-0.13,2.00,-0.569493,1.607555
67.561000,-0.301000,-0.517900,0.02,0.59,0.004412,0.588725,0.02,1.16,-0.100923,0.836217
67.594000,-0.300800,-0.497500,0.02,0.61,0.012255,0.610539,0.17,0.57,0.547866,0.454152
67.628000,-0.300000,-0.476600,0.03,0.62,0.038971,0.611765,0.15,0.29,0.886678,-0.331603
67.661000,-0.298300,-0.456000,0.04,0.62,0.050000,0.600980,-0.01,0.25,-0.302768,-0.158593
67.694000,-0.296900,-0.435500,0.03,0.64,0.027451,0.617157,-0.15,0.23,-0.879469,1.066897
67.728000,-0.296400,-0.413900,0.02,0.65,0.010049,0.650735,-0.17,0.08,-0.064879,0.699250
67.761000,-0.296000,-0.391600,0.02,0.64,0.017892,0.644853,-0.16,-0.14,0.425317,-1.002018
67.794000,-0.295200,-0.370300,0.01,0.63,0.023529,0.612255,-0.18,-0.30,-0.173010,-0.735294
67.828000,-0.294600,-0.349800,0.01,0.62,0.006127,0.601471,-0.20,-0.26,-0.771338,0.072088
67.861000,-0.294800,-0.329300,-0.00,0.61,-0.013235,0.600000,-0.15,-0.02,-0.273933,-0.201845
67.895000,-0.295300,-0.309000,-0.01,0.62,-0.010294,0.594363,-0.10,0.33,0.403691,-0.050461
67.928000,-0.295400,-0.288700,-0.01,0.63,0.004167,0.606127,-0.14,0.64,0.324394,0.785755
67.961000,-0.295200,-0.267500,-0.01,0.66,-0.001471,0.648284,-0.26,0.79,-0.663206,1.578720
67.995000,-0.295700,-0.244600,-0.02,0.69,-0.029167,0.692402,-0.35,0.81,-0.843426,0.886678
68.028000,-0.297100,-0.220700,-0.04,0.72,-0.046569,0.703431,-0.36,0.90,-0.144175,-0.129758
68.061000,-0.298700,-0.196800,-0.05,0.74,-0.044608,0.708824,-0.37,1.23,0.158593,0.634371
68.095000,-0.300200,-0.172100,-0.06,0.79,-0.050490,0.756127,-0.42,1.72,-0.547866,2.141003
68.128000,-0.302300,-0.145000,-0.08,0.86,-0.074510,0.841667,-0.38,2.04,-0.807382,2.753749
68.161000,-0.305300,-0.114800,-0.09,0.94,-0.103431,0.932598,-0.08,1.84,-0.778547,2.472607
68.195000,-0.309100,-0.081800,-0.09,1.00,-0.111275,1.004167,0.40,0.97,0.418108,1.621972
68.228000,-0.312400,-0.047000,-0.06,1.02,-0.069853,1.032108,0.76,-0.45,1.881488,-0.064879
68.261000,-0.313700,-0.012300,-0.03,0.98,-0.013235,0.998775,0.77,-2.16,1.254325,-1.953576
68.295000,-0.313600,0.020100,-0.00,0.87,0.009804,0.889706,0.47,-3.77,0.115340,-4.411765
68.328000,-0.313300,0.047500,0.00,0.71,0.007108,0.714461,0.08,-4.97,-0.194637,-5.716551
68.361000,-0.313200,0.068400,-0.00,0.53,-0.001225,0.515931,-0.24,-5.62,-0.266724,-5.831892
68.395000,-0.313400,0.082600,-0.01,0.33,-0.008824,0.323775,-0.45,-5.69,-0.216263,-5.485871
68.428000,-0.313900,0.090400,-0.03,0.14,-0.025980,0.127451,-0.51,-5.16,-0.807382,-5.997693
68.461000,-0.315300,0.091400,-0.05,-0.03,-0.059559,-0.062745,-0.40,-3.96,-1.045271,-4.959631
68.495000,-0.317800,0.086800,-0.06,-0.14,-0.077696,-0.191422,-0.13,-2.21,0.036044,-2.458189
68.528000,-0.320300,0.079400,-0.06,-0.18,-0.065931,-0.223529,0.17,-0.36,0.569493,0.519031
68.562000,-0.322200,0.072500,-0.05,-0.15,-0.048039,-0.170098,0.39,1.04,0.432526,2.393310
68.595000,-0.323600,0.068200,-0.03,-0.09,-0.036029,-0.085294,0.47,1.71,0.309977,2.393310
68.628000,-0.324600,0.066600,-0.02,-0.03,-0.017892,-0.014951,0.44,1.67,0.742503,1.708478
68.662000,-0.324800,0.067000,-0.00,0.03,0.003186,0.038480,0.32,1.18,0.439735,1.420127
68.695000,-0.324500,0.069000,0.01,0.06,0.011765,0.074510,0.14,0.48,0.072088,0.634371
68.728000,-0.324100,0.071700,0.01,0.06,0.011765,0.075490,-0.06,-0.20,-0.072088,-0.562284
68.761000,-0.323800,0.073800,0.00,0.04,0.001961,0.044608,-0.18,-0.67,-0.475779,-1.167820
68.795000,-0.324000,0.074600,-0.01,0.01,-0.011275,0.001716,-0.19,-0.79,-0.259516,-1.261534
68.828000,-0.324500,0.074000,-0.01,-0.02,-0.017157,-0.032843,-0.14,-0.60,-0.086505,-0.706459
68.862000,-0.325100,0.072600,-0.02,-0.04,-0.016176,-0.043873,-0.11,-0.29,0.115340,0.036044
68.895000,-0.325600,0.071200,-0.02,-0.04,-0.014951,-0.036520,-0.09,-0.03,-0.079296,0.309977
68.928000,-0.326200,0.070100,-0.02,-0.03,-0.023775,-0.033824,-0.07,0.15,-0.396482,-0.144175
68.962000,-0.327200,0.068900,-0.03,-0.03,-0.031127,-0.032353,-0.01,0.31,0.007209,0.273933
68.995000,-0.328200,0.068000,-0.02,-0.02,-0.025490,-0.020833,0.07,0.46,0.288351,0.410900
69.028000,-0.328900,0.067600,-0.02,0.00,-0.016667,0.002451,0.14,0.58,0.187428,0.922722
69.062000,-0.329400,0.068200,-0.02,0.03,-0.016667,0.028922,0.21,0.58,-0.144175,0.591119
69.095000,-0.330000,0.069500,-0.01,0.05,-0.013725,0.048039,0.28,0.47,0.360438,0.533449
69.128000,-0.330200,0.071400,0.00,0.06,0.004412,0.061765,0.31,0.31,0.648789,0.259516
69.162000,-0.329700,0.073600,0.02,0.06,0.022304,0.065196,0.25,0.16,0.353230,-0.028835
69.195000,-0.328800,0.075800,0.02,0.07,0.027941,0.065686,0.12,-0.01,-0.014418,0.086505
69.229000,-0.327900,0.078100,0.02,0.07,0.023529,0.073039,-0.01,-0.21,-0.201845,0.259516
69.262000,-0.327200,0.080600,0.02,0.06,0.020588,0.062990,-0.08,-0.38,0.028835,-0.857843
69.295000,-0.326500,0.082200,0.02,0.04,0.017892,0.032598,-0.09,-0.47,-0.194637,-0.814591
69.328000,-0.326000,0.082900,0.01,0.02,0.012990,0.012990,-0.08,-0.43,-0.079296,-0.324394
69.362000,-0.325600,0.083200,0.01,0.01,0.009804,0.005392,-0.07,-0.25,-0.100923,-0.158593
69.395000,-0.325300,0.083300,0.01,0.00,0.010539,-0.000980,-0.06,0.00,0.122549,-0.201845
69.428000,-0.324900,0.083200,0.01,0.01,0.009069,-0.002941,-0.07,0.22,-0.209054,0.144175
69.462000,-0.324700,0.083300,0.01,0.02,0.005637,0.016912,-0.12,0.29,0.021626,0.958766
69.495000,-0.324500,0.084400,0.00,0.03,0.005882,0.043137,-0.16,0.16,-0.057670,0.461361
69.529000,-0.324400,0.086000,-0.01,0.03,-0.005637,0.044363,-0.16,-0.16,-0.583910,-0.382065
69.562000,-0.324900,0.087200,-0.01,0.02,-0.020098,0.024265,-0.14,-0.54,-0.187428,-0.728085
69.595000,-0.325600,0.087600,-0.01,-0.00,-0.014706,0.003186,-0.14,-0.87,0.432526,-0.540657
69.629000,-0.325900,0.087300,-0.02,-0.04,-0.009069,-0.028431,-0.18,-1.05,-0.180219,-1.340830
69.662000,-0.326400,0.085500,-0.03,-0.08,-0.024510,-0.078676,-0.18,-0.97,-0.663206,-1.521050
69.695000,-0.327600,0.082000,-0.04,-0.11,-0.044118,-0.125245,-0.07,-0.56,-0.389273,-1.102941
69.729000,-0.329200,0.077300,-0.03,-0.12,-0.041912,-0.141667,0.13,0.14,0.497405,0.187428
69.762000,-0.330300,0.072800,-0.02,-0.10,-0.025000,-0.116176,0.29,0.87,0.432526,1.254325
69.795000,-0.330900,0.069700,-0.01,-0.06,-0.009804,-0.063725,0.35,1.35,0.446943,1.758939
69.829000,-0.331000,0.068600,0.00,-0.00,0.001961,0.000980,0.32,1.36,0.245098,1.960784
69.862000,-0.330800,0.069700,0.01,0.04,0.010294,0.061029,0.22,0.88,0.259516,1.448962
69.896000,-0.330300,0.072400,0.02,0.06,0.020343,0.088235,0.10,0.13,0.295559,0.086505
69.929000,-0.329500,0.075200,0.02,0.05,0.022304,0.066176,-0.03,-0.57,-0.194637,-1.297578
69.962000,-0.328900,0.076600,0.01,0.02,0.011520,0.015931,-0.12,-0.92,-0.382065,-1.521050
69.995000,-0.328700,0.076300,0.01,-0.02,0.003431,-0.031127,-0.17,-0.84,-0.072088,-1.160611
70.029000,-0.328600,0.074700,0.00,-0.05,0.003431,-0.056373,-0.20,-0.43,0.028835,-0.317186
70.062000,-0.328500,0.072700,-0.01,-0.05,0.000000,-0.059804,-0.24,0.10,-0.259516,0.086505
70.095000,-0.328700,0.070800,-0.01,-0.04,-0.014951,-0.050735,-0.25,0.56,-0.569493,0.482987
70.129000,-0.329500,0.069500,-0.02,-0.01,-0.027696,-0.016912,-0.20,0.79,-0.151384,1.463379
70.162000,-0.330500,0.069800,-0.03,0.02,-0.031618,0.034314,-0.08,0.67,-0.093714,1.384083
70.196000,-0.331600,0.071600,-0.03,0.04,-0.031618,0.061275,0.07,0.24,0.093714,0.144175
70.229000,-0.332600,0.073600,-0.02,0.04,-0.027451,0.051716,0.18,-0.31,0.158593,-0.641580
70.262000,-0.333400,0.074900,-0.02,0.02,-0.016422,0.023775,0.22,-0.71,0.468570,-0.958766
70.296000,-0.333700,0.075100,-0.01,-0.01,-0.002941,-0.015196,0.18,-0.77,0.273933,-1.268743
70.329000,-0.333700,0.073900,-0.00,-0.04,-0.000980,-0.052206,0.09,-0.47,-0.129758,-0.814591
70.362000,-0.333800,0.071800,-0.00,-0.05,-0.001225,-0.064951,0.01,0.01,0.122549,0.093714
70.396000,-0.333800,0.069800,-0.00,-0.04,-0.002451,-0.046569,-0.01,0.44,-0.201845,0.922722
70.429000,-0.334000,0.068800,-0.00,-0.01,-0.008578,-0.012990,0.02,0.62,-0.108131,0.973183
70.462000,-0.334300,0.068900,-0.00,0.01,-0.005147,0.018382,0.08,0.46,0.295559,0.814591
70.496000,-0.334300,0.069900,0.00,0.02,0.003676,0.036520,0.14,0.02,0.180219,0.194637
70.529000,-0.334100,0.071100,0.01,0.01,0.005637,0.027206,0.18,-0.53,-0.036044,-0.728085
70.562000,-0.333900,0.071500,0.01,-0.01,0.009069,-0.004902,0.18,-1.10,0.266724,-1.124567
70.596000,-0.333400,0.070600,0.02,-0.06,0.023039,-0.050735,0.12,-1.65,0.490196,-1.564302
70.629000,-0.332400,0.067900,0.02,-0.12,0.030147,-0.108088,0.01,-2.22,-0.108131,-1.852653
70.662000,-0.331500,0.063000,0.02,-0.21,0.020588,-0.188725,-0.09,-2.79,-0.389273,-2.897924
70.696000,-0.331000,0.054800,0.02,-0.31,0.012500,-0.294363,-0.17,-3.30,-0.064879,-3.279988
70.729000,-0.330600,0.042800,0.01,-0.43,0.010784,-0.415686,-0.17,-3.60,-0.072088,-3.835063
70.762000,-0.330300,0.026400,0.00,-0.56,0.005147,-0.551225,-0.08,-3.57,-0.266724,-4.044118
70.796000,-0.330300,0.005400,-0.00,-0.68,-0.008333,-0.679167,0.14,-3.12,-0.432526,-3.395329
70.829000,-0.330700,-0.019500,0.01,-0.77,-0.005392,-0.781373,0.41,-2.33,0.648789,-2.551903
70.863000,-0.330400,-0.047300,0.03,-0.84,0.025490,-0.843627,0.57,-1.36,1.081315,-1.095732
70.896000,-0.328900,-0.076400,0.05,-0.86,0.063235,-0.862010,0.48,-0.48,1.023645,-0.050461
70.929000,-0.326300,-0.105600,0.07,-0.86,0.080637,-0.851961,0.19,0.14,-0.036044,0.562284
70.963000,-0.323700,-0.134200,0.07,-0.85,0.068873,-0.831373,-0.09,0.43,-0.569493,0.605536
70.996000,-0.321700,-0.162100,0.06,-0.83,0.049755,-0.807843,-0.19,0.40,-0.468570,0.735294
71.029000,-0.320200,-0.189200,0.05,-0.81,0.044363,-0.789951,-0.17,0.21,0.136967,0.266724
71.063000,-0.318600,-0.216000,0.05,-0.81,0.047794,-0.790441,-0.18,0.07,0.007209,-0.281142
71.096000,-0.317000,-0.243100,0.04,-0.82,0.045833,-0.808088,-0.29,0.14,-0.151384,-0.627163
71.129000,-0.315600,-0.270800,0.03,-0.81,0.032108,-0.810539,-0.45,0.39,-0.641580,0.555075
71.163000,-0.314900,-0.297900,0.01,-0.79,0.011029,-0.779167,-0.52,0.63,-0.583910,1.189446
71.196000,-0.314900,-0.323700,-0.01,-0.76,-0.015931,-0.740931,-0.41,0.68,-0.944348,0.973183
71.229000,-0.315900,-0.348400,-0.02,-0.74,-0.036765,-0.715196,-0.20,0.55,-0.187428,0.519031
71.263000,-0.317100,-0.372500,-0.02,-0.73,-0.024020,-0.705637,-0.09,0.42,0.821799,0.064879
71.296000,-0.317500,-0.396500,-0.02,-0.72,-0.007843,-0.709559,-0.13,0.47,0.000000,-0.180219
71.329000,-0.317900,-0.420600,-0.03,-0.70,-0.021324,-0.697794,-0.21,0.63,-0.742503,0.915513
71.363000,-0.319100,-0.443700,-0.04,-0.67,-0.051471,-0.658824,-0.13,0.72,-0.879469,1.268743
71.396000,-0.321200,-0.465400,-0.05,-0.64,-0.060784,-0.620098,0.14,0.65,0.389273,0.908304
71.429000,-0.322900,-0.486100,-0.03,-0.63,-0.034804,-0.606127,0.41,0.58,1.023645,-0.064879
71.463000,-0.323500,-0.506800,-0.01,-0.61,-0.003922,-0.613725,0.49,0.78,0.706459,-0.201845
71.496000,-0.323300,-0.527600,0.01,-0.59,0.012255,-0.598039,0.39,1.33,0.245098,1.225490
71.529000,-0.322800,-0.547000,0.02,-0.53,0.014706,-0.535539,0.25,2.15,-0.043253,2.386101
71.563000,-0.322300,-0.563700,0.02,-0.44,0.018873,-0.446078,0.22,3.08,0.295559,2.840254
71.596000,-0.321500,-0.577100,0.03,-0.32,0.024510,-0.340196,0.33,3.97,0.043253,3.474625
71.629000,-0.320600,-0.586400,0.04,-0.18,0.031373,-0.192647,0.45,4.67,0.418108,5.190311
71.663000,-0.319200,-0.589800,0.06,-0.01,0.056618,-0.004167,0.42,5.01,1.016436,5.716551
71.696000,-0.316700,-0.586700,0.08,0.17,0.089951,0.180147,0.18,4.82,0.785755,5.024510
71.729000,-0.313400,-0.577800,0.08,0.33,0.090196,0.340686,-0.12,4.11,-0.778547,4.368512
71.763000,-0.310900,-0.563900,0.06,0.45,0.053922,0.469853,-0.25,3.13,-1.153403,3.150231
71.796000,-0.309600,-0.546400,0.05,0.54,0.033824,0.545833,-0.13,2.14,0.043253,1.376874
71.829000,-0.308300,-0.527200,0.05,0.59,0.046078,0.582108,0.14,1.25,0.576701,0.901096
71.863000,-0.306400,-0.506900,0.06,0.62,0.062010,0.618873,0.35,0.54,0.324394,1.175029
71.896000,-0.304100,-0.485400,0.08,0.62,0.074265,0.629412,0.34,0.09,0.425317,-0.605536
71.930000,-0.301300,-0.464500,0.09,0.61,0.094363,0.594853,0.10,-0.05,0.684833,-1.189446
71.963000,-0.297800,-0.444800,0.09,0.61,0.105147,0.577941,-0.28,0.02,-0.151384,0.302768
71.996000,-0.294500,-0.424800,0.07,0.62,0.079167,0.606373,-0.63,0.07,-1.304787,1.182238
72.030000,-0.292600,-0.403600,0.04,0.62,0.035294,0.630392,-0.75,-0.10,-1.153403,0.086505
72.063000,-0.292000,-0.382300,0.01,0.61,0.002941,0.615441,-0.62,-0.37,-0.706459,-0.915513
72.096000,-0.292200,-0.362000,-0.00,0.59,-0.009069,0.575000,-0.34,-0.40,-0.036044,-1.311995
72.130000,-0.292500,-0.343100,-0.01,0.58,-0.011029,0.543627,-0.08,-0.12,-0.108131,-0.389273
72.163000,-0.292900,-0.324600,-0.01,0.58,-0.010294,0.558088,0.02,0.25,0.173010,1.160611
72.196000,-0.293100,-0.304900,-0.00,0.60,0.002941,0.598529,-0.07,0.43,0.519031,1.023645
72.230000,-0.292800,-0.284100,-0.01,0.62,0.006618,0.614706,-0.24,0.44,-0.367647,-0.072088
72.263000,-0.292900,-0.263300,-0.02,0.63,-0.017157,0.608333,-0.33,0.49,-0.937140,-0.158593
72.296000,-0.294000,-0.242600,-0.03,0.64,-0.044118,0.616667,-0.24,0.74,-0.547866,0.706459
72.330000,-0.295700,-0.221100,-0.04,0.67,-0.050245,0.652206,-0.02,1.19,0.194637,1.333622
72.363000,-0.297200,-0.198100,-0.03,0.72,-0.034314,0.698529,0.11,1.66,0.663206,1.412918
72.396000,-0.298000,-0.173400,-0.02,0.79,-0.014951,0.763725,-0.01,1.95,0.382065,2.407728
72.430000,-0.298400,-0.146000,-0.03,0.86,-0.013235,0.847059,-0.25,1.95,-0.331603,2.378893
72.463000,-0.299200,-0.115900,-0.05,0.93,-0.043873,0.919853,-0.35,1.57,-1.348039,1.838235
72.496000,-0.301400,-0.083700,-0.06,0.97,-0.077451,0.969363,-0.24,0.70,-0.461361,1.045271
72.530000,-0.304100,-0.050300,-0.06,0.98,-0.069853,0.993627,-0.07,-0.72,0.814591,0.273933
72.563000,-0.306000,-0.016700,-0.06,0.94,-0.046569,0.971324,-0.02,-2.52,0.389273,-1.794983
72.596000,-0.307500,0.014700,-0.06,0.82,-0.050245,0.847549,-0.06,-4.23,-0.583910,-5.435409
72.630000,-0.309600,0.040000,-0.07,0.64,-0.074265,0.630637,-0.00,-5.35,-0.684833,-6.956459
72.663000,-0.312400,0.057500,-0.07,0.44,-0.083333,0.412745,0.16,-5.61,0.245098,-5.680507
72.697000,-0.314900,0.068400,-0.05,0.25,-0.050980,0.231618,0.24,-5.14,1.485006,-5.010092
72.730000,-0.315900,0.073500,-0.04,0.09,-0.022059,0.069853,0.16,-4.22,0.057670,-4.462226
72.763000,-0.316800,0.073500,-0.04,-0.04,-0.038971,-0.061520,0.02,-3.01,-0.901096,-3.207901
72.797000,-0.318600,0.069800,-0.05,-0.12,-0.059804,-0.151225,-0.00,-1.53,-0.187428,-1.982411
72.830000,-0.320600,0.063900,-0.05,-0.14,-0.049755,-0.178922,0.11,0.00,0.699250,0.389273
72.863000,-0.321900,0.058400,-0.04,-0.11,-0.032353,-0.133333,0.23,1.21,0.245098,2.162630
72.897000,-0.322900,0.055300,-0.03,-0.05,-0.027941,-0.043873,0.27,1.75,0.057670,2.890715
72.930000,-0.323800,0.055400,-0.02,0.02,-0.023039,0.042647,0.25,1.54,0.259516,2.032872
72.963000,-0.324400,0.057800,-0.01,0.07,-0.009804,0.088971,0.18,0.85,0.475779,0.670415
72.997000,-0.324500,0.061000,-0.01,0.08,0.000245,0.092647,0.05,0.07,0.079296,-0.389273
73.030000,-0.324500,0.063800,-0.01,0.07,-0.001716,0.068873,-0.13,-0.52,-0.180219,-0.915513
73.063000,-0.324700,0.065600,-0.02,0.04,-0.010784,0.040441,-0.25,-0.83,-0.346021,-0.742503
73.097000,-0.325300,0.066500,-0.03,0.01,-0.026471,0.008088,-0.19,-0.86,-0.547866,-1.160611
73.130000,-0.326500,0.066100,-0.03,-0.02,-0.044608,-0.031618,0.04,-0.64,-0.418108,-1.088524
73.163000,-0.328100,0.064500,-0.03,-0.04,-0.039216,-0.057843,0.29,-0.23,0.749712,-0.374856
73.197000,-0.328900,0.062500,-0.01,-0.04,-0.004412,-0.050000,0.38,0.18,1.138985,0.778547
73.230000,-0.328500,0.061300,0.01,-0.03,0.018382,-0.023039,0.26,0.43,0.136967,0.706459
73.264000,-0.327900,0.060900,0.01,-0.01,0.014216,-0.001716,0.05,0.47,-0.302768,0.526240
73.297000,-0.327600,0.061100,0.01,0.01,0.005882,0.011275,-0.09,0.38,-0.158593,0.245098
73.330000,-0.327500,0.061600,0.00,0.02,-0.002206,0.017402,-0.08,0.27,-0.295559,0.151384
73.363000,-0.327700,0.062300,-0.00,0.03,-0.005882,0.026961,0.00,0.20,0.100923,0.389273
73.397000,-0.327800,0.063400,0.00,0.03,0.001471,0.033578,0.07,0.21,0.288351,-0.021626
73.430000,-0.327600,0.064500,0.00,0.04,0.008333,0.028922,0.10,0.34,0.086505,-0.158593
73.463000,-0.327300,0.065500,0.01,0.05,0.006863,0.037745,0.10,0.48,-0.129758,0.720877
73.497000,-0.327100,0.067300,0.01,0.07,0.009559,0.072794,0.08,0.52,0.295559,1.218281
73.530000,-0.326600,0.070400,0.01,0.09,0.019118,0.102206,0.03,0.39,0.201845,0.425317
73.564000,-0.325900,0.074000,0.01,0.10,0.016912,0.104412,-0.01,0.10,-0.309977,-0.230681
73.597000,-0.325500,0.077400,0.01,0.10,0.009559,0.099265,-0.03,-0.24,-0.079296,-0.050461
73.630000,-0.325200,0.080700,0.01,0.08,0.008088,0.092892,-0.04,-0.52,-0.007209,-0.396482
73.664000,-0.324900,0.083500,0.01,0.06,0.012255,0.062745,-0.07,-0.66,0.216263,-1.311995
73.697000,-0.324400,0.084900,0.01,0.04,0.013235,0.025000,-0.13,-0.67,-0.187428,-0.792964
73.730000,-0.324100,0.085400,0.00,0.01,0.003186,0.010784,-0.17,-0.57,-0.367647,-0.100923
73.764000,-0.324200,0.085700,-0.00,-0.00,-0.008578,0.002696,-0.15,-0.42,-0.281142,-0.439735
73.797000,-0.324600,0.085500,-0.01,-0.01,-0.011275,-0.017157,-0.12,-0.27,0.115340,-0.663206
73.830000,-0.324900,0.084600,-0.01,-0.02,-0.005882,-0.031127,-0.13,-0.15,0.129758,-0.093714
73.864000,-0.325100,0.083600,-0.02,-0.02,-0.012010,-0.020343,-0.14,-0.18,-0.482987,0.627163
73.897000,-0.325800,0.083200,-0.02,-0.03,-0.027941,-0.010049,-0.09,-0.38,-0.374856,-0.151384
73.930000,-0.326900,0.082600,-0.03,-0.04,-0.033333,-0.034069,0.05,-0.63,0.086505,-1.203864
73.964000,-0.327900,0.080700,-0.02,-0.07,-0.021324,-0.076225,0.17,-0.73,0.569493,-1.160611
73.997000,-0.328300,0.077500,-0.01,-0.10,-0.004412,-0.108824,0.17,-0.55,0.360438,-0.706459
74.030000,-0.328300,0.073500,-0.00,-0.11,0.001716,-0.121814,0.07,-0.15,-0.007209,-0.064879
74.064000,-0.328300,0.069400,-0.01,-0.11,-0.003922,-0.118873,-0.03,0.37,-0.288351,0.237889
74.097000,-0.328600,0.065600,-0.01,-0.09,-0.012745,-0.100490,-0.04,0.90,-0.187428,0.865052
74.130000,-0.329100,0.062800,-0.01,-0.05,-0.014461,-0.060539,0.03,1.31,0.093714,1.477797
74.164000,-0.329500,0.061700,-0.01,0.00,-0.007108,0.000735,0.10,1.39,0.295559,2.054498
74.197000,-0.329600,0.062900,-0.00,0.05,-0.002941,0.069608,0.14,0.97,-0.043253,1.831027
74.231000,-0.329700,0.066100,0.00,0.08,0.000735,0.107108,0.12,0.15,0.281142,0.266724
74.264000,-0.329500,0.069600,0.01,0.07,0.011765,0.087500,0.04,-0.74,0.302768,-1.362457
74.297000,-0.329000,0.071600,0.01,0.02,0.011520,0.024755,-0.09,-1.28,-0.309977,-2.169839
74.331000,-0.328800,0.071200,0.00,-0.03,0.003431,-0.044363,-0.23,-1.24,-0.144175,-1.766148
74.364000,-0.328800,0.068800,-0.01,-0.07,-0.006373,-0.092647,-0.31,-0.70,-0.446943,-0.994810
74.397000,-0.329300,0.065300,-0.02,-0.08,-0.024265,-0.102941,-0.25,0.04,-0.555075,0.389273
74.431000,-0.330400,0.062200,-0.03,-0.07,-0.037745,-0.074755,-0.03,0.63,-0.187428,1.175029
74.464000,-0.331700,0.060400,-0.03,-0.03,-0.035049,-0.029902,0.23,0.88,0.353230,1.355248
74.497000,-0.332600,0.060100,-0.01,-0.00,-0.013971,0.006618,0.37,0.81,0.829008,0.756920
74.531000,-0.332600,0.060700,0.00,0.02,0.012990,0.027941,0.29,0.53,0.655998,0.519031
74.564000,-0.331900,0.061900,0.01,0.04,0.020343,0.041667,0.05,0.16,-0.223472,0.273933
74.597000,-0.331400,0.063400,0.01,0.04,0.009559,0.043873,-0.17,-0.22,-0.353230,-0.165802
74.631000,-0.331300,0.064700,-0.00,0.02,-0.004657,0.029167,-0.26,-0.52,-0.454152,-0.699250
74.664000,-0.331700,0.065200,-0.01,-0.00,-0.017402,-0.004167,-0.19,-0.57,-0.266724,-1.189446
74.697000,-0.332400,0.064400,-0.02,-0.03,-0.021569,-0.041176,-0.05,-0.32,0.014418,-0.850634
74.731000,-0.333100,0.062700,-0.02,-0.03,-0.019853,-0.047549,0.13,0.08,0.079296,0.490196
74.764000,-0.333700,0.061500,-0.01,-0.02,-0.014461,-0.019853,0.29,0.37,0.252307,1.016436
74.797000,-0.334000,0.061400,0.00,0.00,-0.001471,0.011765,0.37,0.41,0.519031,0.735294
74.831000,-0.333700,0.062100,0.02,0.01,0.023775,0.021324,0.30,0.22,0.872261,-0.151384
74.864000,-0.332500,0.062700,0.03,0.02,0.037010,0.016176,0.14,-0.06,-0.136967,-0.086505
74.898000,-0.331400,0.063200,0.03,0.01,0.026716,0.014461,0.02,-0.44,-0.382065,-0.050461
74.931000,-0.330700,0.063600,0.02,-0.01,0.015441,0.007108,-0.00,-1.01,-0.209054,-0.468570
74.964000,-0.330200,0.063400,0.02,-0.05,0.021078,-0.025735,0.04,-1.79,0.504614,-1.535467
74.998000,-0.329200,0.061400,0.03,-0.12,0.034069,-0.101225,0.05,-2.60,0.180219,-2.890715
75.031000,-0.328000,0.056100,0.03,-0.23,0.033088,-0.216667,-0.04,-3.16,-0.209054,-3.791811
75.064000,-0.327000,0.046500,0.03,-0.35,0.028431,-0.348039,-0.16,-3.35,-0.057670,-3.791811
75.097000,-0.326100,0.032600,0.02,-0.46,0.021814,-0.460049,-0.18,-3.24,-0.353230,-2.789792
75.131000,-0.325600,0.015400,0.01,-0.56,0.004412,-0.552941,-0.00,-2.99,-0.591119,-2.753749
75.164000,-0.325700,-0.005000,0.01,-0.66,-0.005147,-0.649510,0.29,-2.63,0.136967,-2.897924
75.198000,-0.325600,-0.028700,0.03,-0.74,0.022794,-0.742157,0.52,-2.06,1.420127,-2.465398
75.231000,-0.324000,-0.055200,0.06,-0.80,0.066912,-0.811029,0.49,-1.24,1.002018,-1.506632
75.264000,-0.321300,-0.083400,0.07,-0.83,0.083333,-0.838235,0.17,-0.36,-0.043253,-0.072088
75.298000,-0.318600,-0.111700,0.07,-0.82,0.074020,-0.815931,-0.27,0.30,-0.446943,1.247116
75.331000,-0.316400,-0.138700,0.05,-0.80,0.054902,-0.777451,-0.52,0.59,-0.677624,0.879469
75.364000,-0.315000,-0.164700,0.02,-0.77,0.021078,-0.756373,-0.41,0.52,-1.225490,0.389273
75.398000,-0.314900,-0.190200,0.01,-0.76,-0.009559,-0.739706,0.04,0.21,-0.410900,0.576701
75.431000,-0.315200,-0.215100,0.03,-0.76,0.006373,-0.729167,0.52,-0.11,1.311995,-0.050461
75.464000,-0.314100,-0.240100,0.06,-0.77,0.060049,-0.753431,0.66,-0.22,1.650807,-1.268743
75.498000,-0.311200,-0.266400,0.08,-0.78,0.105147,-0.786520,0.28,-0.04,0.843426,-0.482987
75.531000,-0.307400,-0.293200,0.08,-0.78,0.105392,-0.777206,-0.36,0.31,-0.836217,0.973183
75.565000,-0.304500,-0.319000,0.05,-0.76,0.059314,-0.744118,-0.76,0.57,-1.730104,0.865052
75.598000,-0.303500,-0.343800,0.02,-0.73,-0.000980,-0.712990,-0.66,0.58,-1.600346,0.915513
75.631000,-0.304200,-0.367600,0.00,-0.72,-0.023284,-0.692647,-0.28,0.44,0.338812,0.245098
75.665000,-0.304600,-0.391100,0.00,-0.71,0.006618,-0.694608,-0.04,0.33,1.189446,-0.259516
75.698000,-0.303800,-0.414800,0.01,-0.70,0.029167,-0.691912,-0.15,0.34,-0.007209,0.468570
75.731000,-0.303000,-0.438000,-0.00,-0.69,0.010539,-0.671569,-0.44,0.46,-1.016436,0.648789
75.764000,-0.303300,-0.460500,-0.03,-0.67,-0.028922,-0.658333,-0.53,0.60,-1.182238,0.173010
75.798000,-0.304900,-0.482700,-0.05,-0.64,-0.062010,-0.638480,-0.23,0.71,-0.655998,1.016436
75.831000,-0.307200,-0.503800,-0.05,-0.62,-0.064216,-0.604167,0.27,0.95,0.547866,0.901096
75.865000,-0.308900,-0.523900,-0.03,-0.59,-0.028922,-0.588480,0.69,1.51,1.398501,0.165802
75.898000,-0.309100,-0.543600,0.01,-0.53,0.010294,-0.556373,0.87,2.36,0.836217,1.946367
75.931000,-0.308300,-0.561000,0.04,-0.44,0.037010,-0.447059,0.80,3.36,0.771338,4.339677
75.965000,-0.306600,-0.573600,0.06,-0.30,0.063971,-0.303186,0.55,4.26,0.800173,4.000865
75.998000,-0.304000,-0.581500,0.08,-0.14,0.089216,-0.156127,0.18,4.81,0.591119,4.736159
76.031000,-0.300800,-0.583900,0.08,0.03,0.087990,0.026716,-0.18,4.92,-0.670415,5.875144
76.065000,-0.298300,-0.579700,0.06,0.19,0.056373,0.208333,-0.43,4.63,-1.038062,4.656863
76.098000,-0.296900,-0.570100,0.04,0.34,0.035049,0.350980,-0.50,3.95,-0.194637,3.777393
76.131000,-0.295800,-0.556100,0.02,0.46,0.027451,0.473284,-0.37,2.98,-0.331603,3.366494
76.165000,-0.295100,-0.538300,0.01,0.54,0.008578,0.562745,-0.11,1.95,-0.699250,1.816609
76.198000,-0.295100,-0.518400,0.02,0.59,-0.000245,0.596078,0.12,1.08,0.266724,0.245098
76.231000,-0.294800,-0.498100,0.03,0.61,0.026716,0.599020,0.22,0.48,1.175029,0.057670
76.265000,-0.293300,-0.477700,0.04,0.61,0.051716,0.602941,0.14,0.16,0.165802,0.187428
76.298000,-0.291600,-0.457100,0.04,0.62,0.040686,0.608333,-0.04,-0.01,-0.706459,0.100923
76.331000,-0.290600,-0.436400,0.03,0.62,0.025000,0.607353,-0.19,-0.15,-0.144175,-0.173010
76.365000,-0.289800,-0.415900,0.02,0.61,0.022059,0.596324,-0.24,-0.20,-0.072088,-0.454152
76.398000,-0.289100,-0.395900,0.02,0.60,0.018873,0.578676,-0.23,-0.14,-0.151384,-0.497405
76.431000,-0.288600,-0.376400,0.01,0.60,0.005147,0.577451,-0.22,-0.05,-0.598328,0.418108
76.465000,-0.288700,-0.356500,0.00,0.60,-0.002206,0.591422,-0.22,0.01,0.165802,0.295559
76.498000,-0.288700,-0.336300,-0.01,0.60,-0.003186,0.590931,-0.22,0.02,-0.281142,-0.309977
76.532000,-0.289000,-0.316400,-0.01,0.60,-0.014951,0.581127,-0.20,0.04,-0.367647,-0.194637
76.565000,-0.289700,-0.296700,-0.02,0.60,-0.024265,0.580882,-0.16,0.16,-0.165802,0.187428
76.598000,-0.290600,-0.276800,-0.03,0.61,-0.028676,0.589951,-0.11,0.32,-0.093714,0.338812
76.632000,-0.291600,-0.256500,-0.03,0.62,-0.028431,0.606618,-0.11,0.43,0.100923,0.627163
76.665000,-0.292500,-0.235500,-0.03,0.64,-0.023284,0.629167,-0.24,0.46,0.136967,0.641580
76.698000,-0.293300,-0.213800,-0.04,0.65,-0.028922,0.642157,-0.39,0.57,-0.519031,0.129758
76.732000,-0.294700,-0.191900,-0.06,0.67,-0.061275,0.645343,-0.44,0.94,-1.254325,0.180219
76.765000,-0.297400,-0.169700,-0.08,0.71,-0.085784,0.667892,-0.32,1.55,-0.115340,1.261534
76.798000,-0.300300,-0.146000,-0.08,0.77,-0.084559,0.738971,-0.06,2.15,0.108131,2.861880
76.832000,-0.303100,-0.119100,-0.08,0.86,-0.081863,0.844853,0.25,2.36,0.057670,3.193483
76.865000,-0.305800,-0.088600,-0.07,0.95,-0.075245,0.944853,0.48,1.83,0.396482,2.559112
76.898000,-0.308000,-0.055200,-0.04,1.00,-0.044363,1.014216,0.52,0.45,1.333622,1.384083
76.932000,-0.308800,-0.020300,-0.02,0.99,-0.010784,1.026225,0.34,-1.54,0.519031,-0.857843
76.965000,-0.309000,0.013500,-0.02,0.90,-0.005392,0.936275,0.04,-3.59,-0.187428,-4.426182
76.998000,-0.309400,0.042300,-0.03,0.74,-0.023039,0.742157,-0.18,-5.13,-0.764129,-6.689735
77.032000,-0.310600,0.063600,-0.04,0.54,-0.043382,0.517892,-0.17,-5.87,-0.353230,-6.264418
77.065000,-0.312200,0.077700,-0.04,0.33,-0.048039,0.318873,-0.04,-5.87,0.086505,-5.471453
77.098000,-0.313700,0.085400,-0.04,0.14,-0.035049,0.129167,0.04,-5.30,0.598328,-5.687716
77.132000,-0.314600,0.086600,-0.03,-0.03,-0.023529,-0.055882,0.00,-4.21,-0.000000,-5.031719
77.165000,-0.315500,0.082100,-0.04,-0.16,-0.035294,-0.196324,-0.07,-2.61,-0.605536,-3.078143
77.199000,-0.317000,0.074100,-0.04,-0.22,-0.045833,-0.257843,-0.10,-0.67,0.036044,-0.504614
77.232000,-0.318500,0.065500,-0.04,-0.20,-0.042402,-0.233088,-0.03,1.15,0.108131,1.881488
77.265000,-0.319900,0.059000,-0.04,-0.12,-0.042647,-0.139216,0.15,2.33,-0.115340,3.474625
77.299000,-0.321400,0.056400,-0.04,-0.02,-0.045588,-0.010049,0.40,2.54,0.028835,3.871107
77.332000,-0.322800,0.058100,-0.02,0.07,-0.028186,0.097549,0.61,1.84,1.002018,2.277970
77.365000,-0.323100,0.062400,0.01,0.11,0.013235,0.143382,0.66,0.62,1.297578,0.410900
77.398000,-0.322000,0.067200,0.03,0.11,0.042892,0.129167,0.49,-0.59,0.396482,-1.175029
77.432000,-0.320400,0.070700,0.04,0.06,0.050490,0.070098,0.15,-1.36,0.086505,-2.162630
77.465000,-0.318700,0.071800,0.04,0.00,0.047549,-0.003431,-0.15,-1.54,-0.259516,-2.032872
77.499000,-0.317300,0.070600,0.03,-0.05,0.031373,-0.062500,-0.27,-1.22,-0.648789,-1.391292
77.532000,-0.316600,0.067800,0.02,-0.08,0.011275,-0.098529,-0.15,-0.60,-0.461361,-0.706459
77.565000,-0.316400,0.064200,0.02,-0.09,0.004167,-0.107843,0.09,0.10,0.079296,0.173010
77.599000,-0.316100,0.060800,0.02,-0.08,0.019118,-0.085539,0.31,0.69,0.749712,1.088524
77.632000,-0.315000,0.058600,0.04,-0.04,0.043873,-0.043627,0.42,1.05,0.627163,1.311995
77.665000,-0.313200,0.057900,0.06,0.00,0.058333,0.003186,0.41,1.06,0.230681,1.405709
77.699000,-0.311100,0.058800,0.07,0.04,0.065686,0.050735,0.31,0.70,0.245098,1.290369
77.732000,-0.308700,0.061100,0.08,0.06,0.078676,0.075245,0.17,0.07,0.482987,0.079296
77.765000,-0.305800,0.063500,0.08,0.04,0.087745,0.059069,0.05,-0.57,-0.000000,-0.987601
77.799000,-0.302900,0.064800,0.08,0.01,0.078186,0.012500,0.03,-0.95,-0.497405,-1.636390
77.832000,-0.300500,0.064300,0.08,-0.03,0.065931,-0.038235,0.14,-0.96,-0.122549,-1.239908
77.865000,-0.298200,0.062400,0.09,-0.06,0.077206,-0.067157,0.28,-0.68,0.756920,-0.475779
77.899000,-0.295100,0.059900,0.10,-0.08,0.104902,-0.081127,0.35,-0.25,0.749712,-0.367647
77.932000,-0.291200,0.057000,0.11,-0.08,0.116422,-0.087255,0.34,0.18,-0.064879,0.057670
77.965000,-0.287300,0.054200,0.12,-0.06,0.114706,-0.070588,0.32,0.45,0.057670,0.908304
77.999000,-0.283300,0.052400,0.13,-0.04,0.125245,-0.031618,0.36,0.44,0.555075,1.232699
78.032000,-0.278700,0.051900,0.15,-0.02,0.144608,-0.008578,0.42,0.17,0.533449,0.050461
78.065000,-0.273500,0.051500,0.16,-0.03,0.159069,-0.018382,0.48,-0.17,0.324394,-0.555075
78.099000,-0.267900,0.050500,0.18,-0.04,0.171569,-0.041176,0.56,-0.35,0.432526,-0.720877
78.132000,-0.261800,0.048700,0.20,-0.06,0.186765,-0.064216,0.72,-0.32,0.490196,-0.562284
78.166000,-0.255100,0.046300,0.22,-0.06,0.211029,-0.069608,0.96,-0.21,0.958766,0.230681
78.199000,-0.247300,0.044100,0.26,-0.07,0.250000,-0.059804,1.17,-0.14,1.311995,0.230681
78.232000,-0.238000,0.042100,0.30,-0.07,0.298529,-0.066667,1.20,-0.13,1.499423,-0.605536
78.266000,-0.227000,0.039500,0.35,-0.08,0.348039,-0.081127,1.02,-0.12,1.340830,-0.165802
78.299000,-0.214500,0.036700,0.38,-0.08,0.381618,-0.081127,0.69,-0.03,0.598328,0.122549
78.332000,-0.201300,0.034000,0.39,-0.08,0.389951,-0.081127,0.36,0.21,-0.050461,-0.122549
78.365000,-0.188100,0.031200,0.40,-0.07,0.387990,-0.083088,0.13,0.57,-0.007209,0.108131
78.399000,-0.174900,0.028600,0.40,-0.05,0.389461,-0.060294,-0.02,0.94,0.093714,1.254325
78.432000,-0.161600,0.027400,0.40,-0.00,0.394118,-0.006373,-0.19,1.15,0.129758,1.802191
78.466000,-0.148200,0.028200,0.39,0.04,0.389461,0.050735,-0.43,1.08,-0.439735,1.434544
78.499000,-0.135300,0.030600,0.37,0.07,0.366422,0.081127,-0.63,0.79,-0.886678,0.367647
78.532000,-0.123400,0.033500,0.34,0.09,0.331618,0.089951,-0.61,0.44,-1.088524,0.237889
78.566000,-0.112700,0.036700,0.32,0.10,0.300735,0.100735,-0.30,0.10,-0.641580,0.382065
78.599000,-0.102700,0.040300,0.32,0.10,0.293873,0.109069,0.17,-0.29,0.266724,0.036044
78.632000,-0.092400,0.043900,0.33,0.08,0.318137,0.096814,0.54,-0.77,1.095732,-0.785755
78.666000,-0.080900,0.046600,0.36,0.05,0.359559,0.057353,0.70,-1.19,1.203864,-1.499423
78.699000,-0.068100,0.047600,0.38,-0.00,0.383088,-0.001225,0.68,-1.34,0.180219,-1.867070
78.732000,-0.055000,0.046500,0.41,-0.05,0.388725,-0.062745,0.55,-1.13,0.288351,-1.629181
78.766000,-0.041500,0.043600,0.42,-0.08,0.417157,-0.097304,0.30,-0.72,1.283160,-0.382065
78.799000,-0.026700,0.040200,0.43,-0.10,0.441422,-0.099755,-0.06,-0.29,-0.007209,0.136967
78.832000,-0.011900,0.036900,0.42,-0.10,0.419118,-0.097304,-0.72,0.01,-1.167820,-0.021626
78.866000,0.001700,0.033600,0.39,-0.09,0.394608,-0.095098,-1.89,0.18,-0.331603,0.173010
78.899000,0.014700,0.030500,0.31,-0.09,0.360539,-0.086029,-3.44,0.29,-2.054498,0.353230
78.933000,0.025100,0.027800,0.16,-0.07,0.214951,-0.071814,-4.74,0.38,-6.509516,0.454152
78.966000,0.028200,0.025600,-0.03,-0.06,-0.050735,-0.060784,-4.98,0.46,-8.484717,0.216263
78.999000,0.022000,0.023700,-0.21,-0.04,-0.280637,-0.047059,-3.89,0.51,-4.548731,0.619954
79.033000,0.010600,0.022500,-0.31,-0.02,-0.356127,-0.021324,-2.04,0.50,-0.093714,0.829008
79.066000,-0.001200,0.022200,-0.33,-0.01,-0.336275,-0.001225,-0.34,0.45,0.893887,0.324394
79.099000,-0.012100,0.022300,-0.31,0.01,-0.313235,0.005882,0.70,0.37,0.432526,0.144175
79.132000,-0.022400,0.022600,-0.28,0.02,-0.284559,0.014216,1.14,0.27,1.319204,0.360438
79.166000,-0.031200,0.023300,-0.23,0.02,-0.227451,0.027451,1.23,0.16,1.917532,0.374856
79.199000,-0.037900,0.024400,-0.19,0.03,-0.174265,0.034314,1.16,0.05,1.117359,0.000000
79.233000,-0.043300,0.025500,-0.16,0.03,-0.149020,0.026716,1.08,-0.02,0.446943,-0.396482
79.266000,-0.048100,0.026200,-0.12,0.02,-0.130637,0.017157,1.16,-0.07,0.742503,-0.100923
79.299000,-0.052000,0.026800,-0.08,0.02,-0.093382,0.024020,1.36,-0.18,1.477797,0.432526
79.333000,-0.054200,0.027800,-0.03,0.02,-0.029412,0.028922,1.44,-0.40,2.177047,-0.245098
79.366000,-0.054000,0.028500,0.02,-0.00,0.034804,0.004902,1.30,-0.66,1.485006,-1.110150
79.399000,-0.052100,0.028000,0.06,-0.03,0.071324,-0.031373,1.08,-0.85,0.670415,-0.951557
79.433000,-0.049400,0.026400,0.09,-0.06,0.080882,-0.062010,1.01,-0.87,0.043253,-0.857843
79.466000,-0.046500,0.023800,0.12,-0.09,0.100980,-0.091422,1.11,-0.62,1.239908,-0.872261
79.499000,-0.042200,0.020200,0.16,-0.11,0.158088,-0.123039,1.12,-0.03,1.996828,-0.879469
79.533000,-0.035700,0.015700,0.21,-0.10,0.221814,-0.132843,0.76,0.78,1.564302,0.461361
79.566000,-0.027500,0.011800,0.22,-0.06,0.247794,-0.078922,0.10,1.36,-0.108131,2.638408
79.600000,-0.019400,0.010800,0.21,0.01,0.218137,0.025735,-0.45,1.21,-1.499423,3.164648
79.633000,-0.012900,0.013200,0.18,0.05,0.165931,0.097304,-0.50,0.35,-1.376874,0.756920
79.666000,-0.007900,0.016400,0.16,0.03,0.135539,0.063725,-0.11,-0.51,-0.295559,-2.566321
79.699000,-0.003200,0.016900,0.17,-0.01,0.153922,-0.037255,0.21,-0.70,1.311995,-2.869089
79.733000,0.002900,0.014400,0.20,-0.03,0.209559,-0.079412,-0.12,-0.27,1.665225,0.547866
79.766000,0.010700,0.012400,0.19,-0.02,0.234069,-0.023284,-1.03,0.17,-0.511822,2.357266
79.799000,0.017800,0.012800,0.13,-0.01,0.152451,0.027451,-1.86,0.20,-4.094579,0.346021
79.833000,0.020500,0.013600,0.04,-0.00,0.011029,0.001961,-1.96,-0.01,-3.741349,-1.614764
79.866000,0.019100,0.012800,-0.03,-0.02,-0.069608,-0.035294,-1.26,-0.09,-0.879469,-0.346021
79.900000,0.016600,0.011600,-0.05,-0.02,-0.065196,-0.025245,-0.23,0.09,0.922722,0.814591
79.933000,0.015000,0.011200,-0.03,-0.01,-0.034314,-0.006863,0.55,0.31,0.764129,0.201845
79.966000,0.014300,0.011100,-0.00,0.01,-0.006127,0.005147,0.80,0.29,0.929931,0.540657
80.000000,0.014700,0.011600,0.03,0.02,0.037745,0.026471,0.56,0.01,1.528258,0.605536
80.033000,0.016700,0.012700,0.04,0.01,0.067402,0.028676,0.09,-0.31,0.079296,-0.540657
80.066000,0.018800,0.013200,0.04,-0.01,0.046078,-0.006863,-0.30,-0.44,-1.225490,-1.412918
80.100000,0.019600,0.012200,0.01,-0.03,0.000735,-0.047059,-0.38,-0.28,-1.232699,-0.764129
80.133000,0.019100,0.010400,0.00,-0.03,-0.016667,-0.043382,-0.17,0.04,0.245098,0.915513
80.166000,0.018800,0.009500,0.00,-0.02,0.000980,-0.014216,0.07,0.26,0.663206,0.634371
80.200000,0.019200,0.009300,0.01,-0.01,0.019853,-0.003186,0.11,0.27,0.367647,0.036044
80.233000,0.020000,0.009200,0.02,-0.00,0.022794,0.000245,-0.04,0.13,-0.194637,0.194637
80.266000,0.020600,0.009300,0.01,-0.00,0.011029,0.004412,-0.18,0.03,-0.454152,0.014418
80.300000,0.020700,0.009400,-0.00,-0.00,-0.005882,-0.003922,-0.20,0.03,-0.475779,-0.432526
80.333000,0.020300,0.009100,-0.01,0.00,-0.011765,-0.004657,-0.13,0.03,0.129758,0.410900
80.366000,0.020000,0.009200,-0.01,0.00,-0.006863,0.009069,-0.07,-0.01,0.100923,0.295559
80.400000,0.019800,0.009600,-0.01,0.00,-0.006618,0.009559,-0.07,-0.07,-0.093714,-0.281142
80.433000,0.019500,0.009700,-0.01,-0.00,-0.011520,-0.007108,-0.06,-0.10,-0.180219,-0.598328
80.466000,0.019000,0.009200,-0.02,-0.01,-0.018627,-0.013725,-0.00,-0.09,-0.201845,0.230681
80.500000,0.018300,0.008900,-0.01,-0.01,-0.019118,-0.004657,0.09,-0.03,0.187428,0.209054
80.533000,0.017800,0.008800,-0.01,-0.01,-0.009069,-0.006863,0.19,0.04,0.367647,-0.317186
80.567000,0.017700,0.008400,-0.00,-0.01,0.002206,-0.013725,0.23,0.12,0.266724,-0.014418
80.600000,0.017900,0.008000,0.01,-0.00,0.007108,-0.005637,0.18,0.20,0.050461,0.468570
80.633000,0.018200,0.008100,0.01,0.01,0.015441,0.011275,0.03,0.25,0.410900,0.461361
