Time,PosX,PosY,RawVelX,RawVelY,CalcVelX,CalcVelY,RawAccX,RawAccY,CalcAccX,CalcAccY,CalcJerkX,CalcJerkY,CalcForceX,CalcForceY,CalcImpulseX,CalcImpulseY,CalcWork,CalcPower
35.881000,-0.000000,0.000000,0.03,0.18,-0.001716,0.153431,-0.64,-1.46,-1.117359,-1.585928,11.131183,-16.219723,-1.117359,-1.585928,-0.001716,0.153431,0.011772,-0.241414
35.915000,0.002200,0.006700,0.03,0.18,-0.001716,0.153431,-0.64,-1.46,-1.117359,-1.585928,11.131183,-16.219723,-1.117359,-1.585928,-0.001716,0.153431,0.011772,-0.241414
35.948000,0.003800,0.013600,0.03,0.18,-0.005637,0.143342,-0.64,-1.46,-0.968378,-1.649606,12.933374,-16.325734,-0.968378,-1.649606,-0.005637,0.143342,0.010289,-0.230998
35.981000,0.004400,0.019600,0.00,0.14,-0.010253,0.118253,-0.58,-1.62,-0.735695,-1.848848,11.325537,-16.608431,-0.735695,-1.848848,-0.010253,0.118253,0.007044,-0.211089
36.015000,0.003800,0.023800,-0.01,0.08,-0.019478,0.062390,-0.42,-2.05,-0.356100,-2.193033,10.827873,-14.022934,-0.356100,-2.193033,-0.019478,0.062390,0.002136,-0.129887
36.048000,0.002900,0.025700,-0.02,0.00,-0.022071,-0.010457,-0.18,-2.40,-0.147123,-2.503472,5.017376,-4.575171,-0.147123,-2.503472,-0.022071,-0.010457,0.000298,0.029425
36.081000,0.002100,0.024500,-0.03,-0.09,-0.022407,-0.090119,0.04,-2.29,-0.020193,-2.294189,5.556184,13.862118,-0.020193,-2.294189,-0.022407,-0.090119,0.004312,0.207202
36.115000,0.001200,0.019900,-0.02,-0.16,-0.017952,-0.154303,0.19,-1.59,0.197989,-1.495256,5.207626,33.828254,0.197989,-1.495256,-0.017952,-0.154303,0.012066,0.227169
36.148000,0.000400,0.012500,-0.01,-0.20,-0.008687,-0.180811,0.26,-0.38,0.286745,-0.075298,0.627845,43.038123,0.286745,-0.075298,-0.008687,-0.180811,0.016384,0.011124
36.181000,0.000200,0.004500,-0.00,-0.19,0.000789,-0.159406,0.22,0.95,0.222561,1.250880,-5.865148,31.840084,0.222561,1.250880,0.000789,-0.159406,0.012705,-0.199223
36.215000,0.000700,-0.001900,0.01,-0.13,0.003708,-0.102454,0.07,1.83,-0.062895,1.962078,-6.226453,7.497172,-0.062895,1.962078,0.003708,-0.102454,0.005255,-0.201257
36.248000,0.001000,-0.005000,0.00,-0.05,-0.000272,-0.037067,-0.10,1.87,-0.154810,1.742961,-0.955154,-20.370651,-0.154810,1.742961,-0.000272,-0.037067,0.000687,-0.064564
36.281000,0.001000,-0.004500,-0.00,0.01,-0.005596,0.006158,-0.18,1.19,-0.150423,0.744861,0.340229,-30.291570,-0.150423,0.744861,-0.005596,0.006158,0.000035,0.005429
36.315000,0.000800,-0.002400,-0.01,0.04,-0.010537,0.016090,-0.14,0.29,-0.130169,-0.111603,2.653805,-18.143734,-0.130169,-0.111603,-0.010537,0.016090,0.000185,-0.000424
36.348000,0.000200,-0.001000,-0.01,0.02,-0.012533,0.005546,-0.03,-0.33,0.016912,-0.429107,3.944372,-0.598757,0.016912,-0.429107,-0.012533,0.005546,0.000094,-0.002592
36.381000,-0.000400,-0.001000,-0.01,-0.00,-0.010258,-0.006484,0.06,-0.47,0.104874,-0.245107,0.675651,4.827096,0.104874,-0.245107,-0.010258,-0.006484,0.000074,0.000513
36.415000,-0.000700,-0.001500,-0.01,-0.02,-0.007026,-0.013514,0.13,-0.31,0.083975,-0.168838,0.823009,3.195988,0.083975,-0.168838,-0.007026,-0.013514,0.000116,0.001692
36.448000,-0.000900,-0.002200,-0.00,-0.02,-0.002799,-0.016813,0.17,-0.08,0.166039,-0.023335,1.680929,3.616423,0.166039,-0.023335,-0.002799,-0.016813,0.000145,-0.000072
36.481000,-0.001000,-0.002900,0.00,-0.02,0.003183,-0.015921,0.17,0.10,0.176233,0.078506,-0.377761,4.580768,0.176233,0.078506,0.003183,-0.015921,0.000132,-0.000689
36.515000,-0.000900,-0.003600,0.01,-0.01,0.008683,-0.009908,0.12,0.23,0.135140,0.267509,-3.069155,3.433418,0.135140,0.267509,0.008683,-0.009908,0.000087,-0.001477
36.548000,-0.000300,-0.004000,0.01,-0.00,0.010801,-0.000179,0.03,0.27,-0.012983,0.282342,-3.754824,-1.102561,-0.012983,0.282342,0.010801,-0.000179,0.000058,-0.000191
36.582000,0.000300,-0.003900,0.01,0.01,0.008844,0.008245,-0.04,0.18,-0.088973,0.188960,0.028794,-6.767284,-0.088973,0.188960,0.008844,0.008245,0.000073,0.000771
36.615000,0.000400,-0.003200,0.01,0.01,0.006624,0.009351,-0.12,0.02,-0.045828,-0.118489,-1.098056,-5.764114,-0.045828,-0.118489,0.006624,0.009351,0.000066,-0.001412
36.648000,0.000600,-0.002600,0.00,0.01,0.002986,0.004281,-0.20,-0.09,-0.181060,-0.145646,-5.584785,2.045873,-0.181060,-0.145646,0.002986,0.004281,0.000014,-0.001164
36.681000,0.001000,-0.002500,-0.00,0.00,-0.006405,0.001373,-0.21,-0.03,-0.342986,-0.003173,0.794396,7.066110,-0.342986,-0.003173,-0.006405,0.001373,0.000021,0.002192
36.715000,0.000700,-0.002900,-0.01,0.00,-0.014704,0.006008,-0.11,0.11,-0.106564,0.261145,10.173768,4.168945,-0.106564,0.261145,-0.014704,0.006008,0.000126,0.003136
36.748000,-0.000400,-0.002800,-0.02,0.01,-0.012056,0.014956,0.09,0.15,0.253074,0.220811,8.453731,-6.502381,0.253074,0.220811,-0.012056,0.014956,0.000185,0.000251
36.782000,-0.001200,-0.001900,-0.01,0.02,-0.000416,0.016974,0.22,0.02,0.376446,-0.111908,-4.528228,-8.074722,0.376446,-0.111908,-0.000416,0.016974,0.000144,-0.002056
36.815000,-0.000800,-0.001000,0.01,0.02,0.006459,0.010183,0.14,-0.18,0.000393,-0.266596,-10.688955,-3.383619,0.000393,-0.266596,0.006459,0.010183,0.000073,-0.002712
36.848000,-0.000100,-0.000600,0.01,0.00,0.001947,-0.000376,-0.06,-0.29,-0.236357,-0.325002,-3.278276,2.595755,-0.236357,-0.325002,0.001947,-0.000376,0.000002,-0.000338
36.882000,0.000100,-0.000900,-0.00,-0.01,-0.006238,-0.008088,-0.17,-0.20,-0.208733,-0.108211,4.456849,6.865433,-0.208733,-0.108211,-0.006238,-0.008088,0.000052,0.002177
36.915000,-0.000400,-0.001400,-0.01,-0.01,-0.009661,-0.008273,-0.08,0.02,0.020734,0.093599,7.511206,5.764310,0.020734,0.093599,-0.009661,-0.008273,0.000081,-0.000975
36.948000,-0.001100,-0.002000,-0.01,-0.01,-0.005060,-0.002032,0.08,0.20,0.224578,0.255879,1.729648,2.953047,0.224578,0.255879,-0.005060,-0.002032,0.000015,-0.001656
36.982000,-0.001300,-0.002200,-0.00,0.01,0.001386,0.007269,0.11,0.20,0.120182,0.252883,-6.145674,-5.967896,0.120182,0.252883,0.001386,0.007269,0.000027,0.002005
37.015000,-0.001000,-0.001500,0.00,0.01,0.001267,0.010146,-0.02,0.05,-0.129968,-0.094224,-6.619630,-8.506325,-0.129968,-0.094224,0.001267,0.010146,0.000052,-0.001121
37.048000,-0.000600,-0.000800,-0.00,0.01,-0.005971,0.003924,-0.16,-0.13,-0.267154,-0.239080,-0.643393,-0.345150,-0.267154,-0.239080,-0.005971,0.003924,0.000026,0.000657
37.082000,-0.000800,-0.000700,-0.01,-0.00,-0.013774,-0.002884,-0.13,-0.18,-0.152692,-0.139653,8.489527,4.143351,-0.152692,-0.139653,-0.013774,-0.002884,0.000099,0.002506
37.115000,-0.001800,-0.001100,-0.02,-0.01,-0.012441,-0.005341,0.06,-0.11,0.230391,-0.009056,8.251427,3.177304,0.230391,-0.009056,-0.012441,-0.005341,0.000092,-0.002818
37.148000,-0.002500,-0.001500,-0.01,-0.01,-0.002204,-0.004475,0.24,-0.06,0.333740,0.035288,-0.761218,-2.755313,0.333740,0.035288,-0.002204,-0.004475,0.000012,-0.000894
37.182000,-0.002400,-0.001500,0.01,-0.01,0.007404,-0.006538,0.26,-0.10,0.208161,-0.166235,-5.271325,-4.806186,0.208161,-0.166235,0.007404,-0.006538,0.000049,0.002628
37.215000,-0.001800,-0.001600,0.01,-0.01,0.011324,-0.013764,0.13,-0.19,0.023035,-0.245296,-4.715818,-1.684295,0.023035,-0.245296,0.011324,-0.013764,0.000159,0.003637
37.249000,-0.001200,-0.002100,0.01,-0.02,0.010025,-0.022828,-0.03,-0.23,-0.085218,-0.268031,-1.399496,2.310614,-0.085218,-0.268031,0.010025,-0.022828,0.000311,0.005264
37.282000,-0.000800,-0.003100,0.01,-0.03,0.007030,-0.029301,-0.11,-0.15,-0.081250,-0.097569,0.358927,5.245933,-0.081250,-0.097569,0.007030,-0.029301,0.000454,0.002288
37.315000,-0.000600,-0.004300,0.00,-0.03,0.004354,-0.029889,-0.10,0.04,-0.072199,0.067623,0.992696,6.400971,-0.072199,0.067623,0.004354,-0.029889,0.000456,-0.002336
37.349000,-0.000600,-0.005600,0.00,-0.03,0.002755,-0.023386,-0.06,0.22,-0.021970,0.301382,0.755327,3.637331,-0.021970,0.301382,0.002755,-0.023386,0.000277,-0.007109
37.382000,-0.000500,-0.006500,0.00,-0.02,0.002043,-0.012842,-0.01,0.30,-0.019299,0.295786,0.662377,-1.401276,-0.019299,0.295786,0.002043,-0.012842,0.000085,-0.003838
37.415000,-0.000400,-0.006700,0.00,-0.00,0.002189,-0.003710,0.05,0.27,0.033971,0.230487,2.462520,-3.920780,0.033971,0.230487,0.002189,-0.003710,0.000009,-0.000781
37.448000,-0.000500,-0.006400,0.00,0.00,0.004994,0.001326,0.09,0.21,0.126196,0.080503,1.739946,0.279114,0.126196,0.080503,0.004994,0.001326,0.000013,0.000737
37.482000,-0.000400,-0.006400,0.01,0.01,0.009571,0.006506,0.09,0.16,0.124013,0.228447,-3.062989,1.619292,0.124013,0.228447,0.009571,0.006506,0.000067,0.002673
37.515000,0.000200,-0.006200,0.01,0.01,0.010924,0.013152,0.04,0.11,-0.044804,0.142803,-2.976800,-3.500004,-0.044804,0.142803,0.010924,0.013152,0.000146,0.001389
37.549000,0.000700,-0.005500,0.01,0.02,0.009094,0.015981,-0.02,0.04,-0.048073,0.017421,1.113594,-5.242976,-0.048073,0.017421,0.009094,0.015981,0.000169,-0.000159
37.582000,0.000900,-0.004600,0.01,0.02,0.008238,0.013230,-0.06,-0.03,-0.005868,-0.157120,0.113511,0.292022,-0.005868,-0.157120,0.008238,0.013230,0.000121,-0.002127
37.615000,0.001100,-0.004300,0.01,0.01,0.007341,0.010669,-0.10,-0.05,-0.060653,0.019969,-3.505877,3.627314,-0.060653,0.019969,0.007341,0.010669,0.000084,-0.000232
37.649000,0.001500,-0.004100,0.00,0.01,0.002678,0.011785,-0.15,-0.04,-0.210529,0.028804,-3.109665,-1.095963,-0.210529,0.028804,0.002678,0.011785,0.000073,-0.000224
37.682000,0.001700,-0.003700,-0.00,0.01,-0.005234,0.011790,-0.18,-0.05,-0.231423,-0.036325,2.183759,-2.917463,-0.231423,-0.036325,-0.005234,0.011790,0.000083,0.000783
37.715000,0.001300,-0.003100,-0.01,0.01,-0.010720,0.008749,-0.11,-0.06,-0.073659,-0.131011,6.259364,-0.456882,-0.073659,-0.131011,-0.010720,0.008749,0.000096,-0.000357
37.749000,0.000600,-0.002800,-0.01,0.01,-0.009440,0.005343,0.03,-0.03,0.138984,-0.048314,3.845446,5.056206,0.138984,-0.048314,-0.009440,0.005343,0.000059,-0.001570
37.782000,0.000200,-0.002900,-0.01,0.01,-0.003932,0.007251,0.14,0.05,0.162272,0.150332,-1.019152,2.621751,0.162272,0.150332,-0.003932,0.007251,0.000034,0.000452
37.815000,0.000100,-0.002800,-0.00,0.01,0.000508,0.011903,0.11,0.06,0.082649,0.096299,-4.087435,-3.543853,0.082649,0.096299,0.000508,0.011903,0.000071,0.001188
37.849000,0.000300,-0.002200,0.00,0.01,0.000410,0.012710,-0.03,-0.03,-0.093744,-0.061019,-5.727616,-6.673376,-0.093744,-0.061019,0.000410,0.012710,0.000081,-0.000814
37.882000,0.000600,-0.001400,-0.00,0.01,-0.005852,0.006431,-0.16,-0.14,-0.252954,-0.283672,-1.052780,-0.695765,-0.252954,-0.283672,-0.005852,0.006431,0.000038,-0.000344
37.915000,0.000400,-0.001300,-0.01,0.00,-0.013203,-0.000650,-0.15,-0.15,-0.150296,-0.107910,5.654655,4.973469,-0.150296,-0.107910,-0.013203,-0.000650,0.000087,0.002054
37.949000,-0.000400,-0.001600,-0.02,-0.00,-0.014491,-0.002468,-0.03,-0.06,0.075766,-0.002788,5.590492,3.575255,0.075766,-0.002788,-0.014491,-0.002468,0.000108,-0.001091
37.982000,-0.001200,-0.001900,-0.01,-0.00,-0.009681,-0.000356,0.10,0.03,0.187021,0.111308,0.708067,0.099646,0.187021,0.111308,-0.009681,-0.000356,0.000047,-0.001850
38.015000,-0.001400,-0.001800,-0.01,0.00,-0.003906,0.001939,0.18,0.06,0.141116,0.012079,-1.759539,-2.196815,0.141116,0.012079,-0.003906,0.001939,0.000010,-0.000528
38.049000,-0.001300,-0.001700,-0.00,0.00,0.000146,0.001857,0.19,-0.01,0.103949,-0.019084,0.513828,-1.992703,0.103949,-0.019084,0.000146,0.001857,0.000002,-0.000020
38.082000,-0.001400,-0.001600,0.01,0.00,0.004684,-0.000593,0.15,-0.12,0.163393,-0.130925,1.117522,-3.931596,0.163393,-0.130925,0.004684,-0.000593,0.000011,0.000843
38.115000,-0.001200,-0.001500,0.01,-0.01,0.010200,-0.007306,0.10,-0.21,0.143077,-0.253279,-3.862548,-1.782468,0.143077,-0.253279,0.010200,-0.007306,0.000079,0.003310
38.149000,-0.000500,-0.001700,0.01,-0.02,0.011631,-0.015900,0.05,-0.21,-0.054650,-0.231037,-2.365707,2.864061,-0.054650,-0.231037,0.011631,-0.015900,0.000194,0.003038
38.182000,-0.000100,-0.002500,0.01,-0.02,0.010420,-0.021351,-0.02,-0.12,-0.006889,-0.078316,0.340104,5.427823,-0.006889,-0.078316,0.010420,-0.021351,0.000282,0.001600
38.216000,0.000200,-0.003600,0.01,-0.02,0.009312,-0.020914,-0.09,0.00,-0.065524,0.092616,-2.192798,2.336082,-0.065524,0.092616,0.009312,-0.020914,0.000262,-0.002547
38.249000,0.000600,-0.004300,0.01,-0.02,0.005862,-0.017747,-0.13,0.11,-0.133416,0.084083,-1.527912,-0.031157,-0.133416,0.084083,0.005862,-0.017747,0.000175,-0.002274
38.282000,0.000900,-0.004800,0.00,-0.02,0.000854,-0.014328,-0.11,0.17,-0.144893,0.124365,2.136175,2.504380,-0.144893,0.124365,0.000854,-0.014328,0.000103,-0.001906
38.316000,0.000700,-0.005400,-0.00,-0.01,-0.001781,-0.008205,-0.04,0.21,0.000472,0.231781,4.924890,2.214395,0.000472,0.231781,-0.001781,-0.008205,0.000035,-0.001903
38.349000,0.000400,-0.005700,-0.00,-0.00,0.000826,0.000125,0.05,0.18,0.136926,0.233570,0.699793,-3.719016,0.136926,0.233570,0.000826,0.000125,0.000000,0.000142
38.382000,0.000500,-0.005400,0.00,0.01,0.004334,0.004413,0.10,0.08,0.058943,0.009075,-1.500812,-5.763356,0.058943,0.009075,0.004334,0.004413,0.000019,0.000296
38.416000,0.000700,-0.005000,0.01,0.01,0.006334,0.002431,0.09,-0.06,0.061480,-0.112145,-0.186509,-2.428485,0.061480,-0.112145,0.006334,0.002431,0.000023,0.000117
38.449000,0.001000,-0.004800,0.01,0.00,0.008028,-0.002331,0.04,-0.14,0.035690,-0.152943,-0.917288,0.595901,0.035690,-0.152943,0.008028,-0.002331,0.000035,0.000643
38.482000,0.001300,-0.005000,0.01,-0.01,0.008685,-0.006519,0.00,-0.13,0.001777,-0.085031,-0.714022,2.185834,0.001777,-0.085031,0.008685,-0.006519,0.000059,0.000570
38.516000,0.001600,-0.005400,0.01,-0.01,0.008382,-0.008338,-0.06,-0.06,-0.028598,-0.022842,-3.293206,1.576741,-0.028598,-0.022842,0.008382,-0.008338,0.000070,-0.000049
38.549000,0.002000,-0.005700,0.01,-0.01,0.004519,-0.008318,-0.13,0.02,-0.193099,0.024072,-2.152029,1.528192,-0.193099,0.024072,0.004519,-0.008318,0.000045,-0.001073
38.582000,0.002200,-0.006000,-0.00,-0.01,-0.001649,-0.006493,-0.16,0.10,-0.153491,0.085509,1.477714,2.531703,-0.153491,0.085509,-0.001649,-0.006493,0.000022,-0.000302
38.616000,0.002100,-0.006400,-0.01,-0.00,-0.006221,-0.001937,-0.11,0.13,-0.105824,0.173252,3.651014,0.305610,-0.105824,0.173252,-0.006221,-0.001937,0.000021,0.000323
38.649000,0.001500,-0.006400,-0.01,0.00,-0.006867,0.003007,-0.04,0.14,0.060107,0.110409,2.126923,-2.972481,0.060107,0.110409,-0.006867,0.003007,0.000028,-0.000081
38.682000,0.001200,-0.006000,-0.01,0.01,-0.005286,0.005325,-0.01,0.22,0.011604,0.066500,-3.648500,4.962096,0.011604,0.066500,-0.005286,0.005325,0.000028,0.000293
38.716000,0.001300,-0.005800,-0.01,0.01,-0.007377,0.013889,-0.02,0.58,-0.123813,0.507666,-0.783653,19.890680,-0.123813,0.507666,-0.007377,0.013889,0.000124,0.007964
38.749000,0.001000,-0.005700,-0.01,0.03,-0.010199,0.044992,-0.01,1.30,-0.021105,1.365639,4.402854,29.372810,-0.021105,1.365639,-0.010199,0.044992,0.001064,0.061657
38.782000,0.000400,-0.004700,-0.01,0.09,-0.008321,0.108915,0.06,2.19,0.129634,2.371522,3.412499,25.172384,0.129634,2.371522,-0.008321,0.108915,0.005966,0.257215
38.816000,0.000100,-0.000900,-0.01,0.19,-0.002637,0.200855,0.17,2.87,0.194703,2.950090,1.037531,7.712719,0.194703,2.950090,-0.002637,0.200855,0.020175,0.592028
38.849000,0.000100,0.007100,0.00,0.30,0.004342,0.301465,0.24,2.99,0.211448,2.866943,1.059705,-11.374940,0.211448,2.866943,0.004342,0.301465,0.045450,0.865201
38.883000,0.000200,0.019300,0.01,0.40,0.012335,0.389153,0.21,2.44,0.241904,2.203406,-2.194731,-26.689141,0.241904,2.203406,0.012335,0.389153,0.075796,0.860446
38.916000,0.000800,0.034700,0.02,0.47,0.017690,0.446149,0.06,1.26,0.050328,1.070933,-7.450942,-40.744668,0.050328,1.070933,0.017690,0.446149,0.099681,0.478686
38.949000,0.001800,0.052000,0.02,0.49,0.014808,0.456292,-0.14,-0.40,-0.220422,-0.537995,-7.385226,-53.855496,-0.220422,-0.537995,0.014808,0.456292,0.104211,-0.248747
38.983000,0.002500,0.069400,0.01,0.45,0.003701,0.405145,-0.36,-2.31,-0.415219,-2.477498,-3.373790,-56.846058,-0.415219,-2.477498,0.003701,0.405145,0.082078,-1.005283
39.016000,0.002500,0.084300,-0.01,0.34,-0.011335,0.289937,-0.49,-4.05,-0.453162,-4.209089,-0.468029,-40.924647,-0.453162,-4.209089,-0.011335,0.289937,0.042096,-1.215235
39.049000,0.002000,0.093900,-0.03,0.17,-0.026967,0.129082,-0.49,-5.02,-0.453506,-5.064835,1.479922,-4.898907,-0.453506,-5.064835,-0.026967,0.129082,0.008695,-0.641551
39.083000,0.000800,0.096200,-0.04,-0.03,-0.040820,-0.036863,-0.37,-4.71,-0.344547,-4.474816,5.151178,39.007697,-0.344547,-4.474816,-0.040820,-0.036863,0.001513,0.179018
39.116000,-0.001100,0.091200,-0.05,-0.18,-0.048920,-0.158976,-0.20,-3.11,-0.127001,-2.560722,5.875690,68.443466,-0.127001,-2.560722,-0.048920,-0.158976,0.013833,0.413308
39.149000,-0.003000,0.081400,-0.06,-0.25,-0.050373,-0.204535,0.01,-0.80,0.037950,-0.122513,4.541099,67.256770,0.037950,-0.122513,-0.050373,-0.204535,0.022186,0.023147
39.183000,-0.004800,0.071200,-0.05,-0.23,-0.046451,-0.174678,0.23,1.29,0.196615,1.738252,6.612650,37.882328,0.196615,1.738252,-0.046451,-0.174678,0.016335,-0.312768
39.216000,-0.006700,0.064300,-0.04,-0.14,-0.035296,-0.101601,0.36,2.44,0.439181,2.386264,2.972076,3.953741,0.439181,2.386264,-0.035296,-0.101601,0.005784,-0.257948
39.249000,-0.007900,0.061700,-0.02,-0.04,-0.021100,-0.023293,0.33,2.42,0.352266,2.084718,-7.095469,-21.279323,0.352266,2.084718,-0.021100,-0.023293,0.000494,-0.055993
39.283000,-0.008100,0.062700,-0.01,0.04,-0.014587,0.031594,0.14,1.52,0.017769,1.077968,-9.592178,-32.941790,0.017769,1.077968,-0.014587,0.031594,0.000605,0.033799
39.316000,-0.008100,0.065800,-0.01,0.07,-0.018570,0.049586,-0.10,0.31,-0.230283,-0.015946,-4.265432,-32.094302,-0.230283,-0.015946,-0.018570,0.049586,0.001402,0.003486
39.349000,-0.008700,0.069100,-0.02,0.06,-0.027463,0.031586,-0.27,-0.71,-0.269704,-0.973996,0.711719,-18.207131,-0.269704,-0.973996,-0.027463,0.031586,0.000876,-0.023358
39.383000,-0.009800,0.070400,-0.04,0.01,-0.035858,-0.007019,-0.31,-1.24,-0.220298,-1.201851,0.308810,1.051430,-0.220298,-1.201851,-0.035858,-0.007019,0.000668,0.016335
39.416000,-0.011100,0.069700,-0.05,-0.04,-0.043805,-0.044925,-0.24,-1.15,-0.237857,-0.963372,2.343319,11.770271,-0.237857,-0.963372,-0.043805,-0.044925,0.001969,0.053699
39.449000,-0.012800,0.067400,-0.05,-0.08,-0.049102,-0.069482,-0.12,-0.58,-0.067949,-0.431757,3.781376,22.226084,-0.067949,-0.431757,-0.049102,-0.069482,0.003619,0.033336
39.483000,-0.014700,0.063700,-0.05,-0.08,-0.050248,-0.069272,-0.03,0.17,-0.006514,0.439095,2.345923,22.203816,-0.006514,0.439095,-0.050248,-0.069272,0.003662,-0.030090
39.516000,-0.016600,0.060500,-0.05,-0.06,-0.048830,-0.044654,0.02,0.73,0.074095,0.929952,-1.152014,4.754702,0.074095,0.929952,-0.048830,-0.044654,0.002189,-0.045144
39.550000,-0.018100,0.059200,-0.05,-0.02,-0.048621,-0.014453,-0.00,0.87,-0.070436,0.772436,-2.981353,-10.401496,-0.070436,0.772436,-0.048621,-0.014453,0.001286,-0.007740
39.583000,-0.019700,0.059400,-0.05,0.01,-0.051618,0.004610,-0.08,0.56,-0.100313,0.326984,-1.059934,-13.874506,-0.100313,0.326984,-0.051618,0.004610,0.001343,0.006685
39.616000,-0.021500,0.060400,-0.06,0.02,-0.055963,0.008368,-0.16,0.10,-0.157014,-0.084689,-1.839672,-8.975524,-0.157014,-0.084689,-0.055963,0.008368,0.001601,0.008078
39.649000,-0.023400,0.061300,-0.06,0.01,-0.062375,0.002040,-0.22,-0.18,-0.218301,-0.249170,-1.543380,-0.150950,-0.218301,-0.249170,-0.062375,0.002040,0.001947,0.013108
39.683000,-0.025500,0.061100,-0.07,-0.00,-0.070499,-0.004965,-0.25,-0.28,-0.253585,-0.154163,-0.192803,2.030298,-0.253585,-0.154163,-0.070499,-0.004965,0.002497,0.018643
39.716000,-0.028100,0.060500,-0.08,-0.01,-0.078886,-0.010373,-0.26,-0.37,-0.236039,-0.199383,0.876760,-8.008659,-0.236039,-0.199383,-0.078886,-0.010373,0.003165,0.020688
39.749000,-0.031000,0.060600,-0.09,-0.02,-0.086458,-0.024329,-0.28,-0.46,-0.217369,-0.615201,-1.635193,-8.205159,-0.217369,-0.615201,-0.086458,-0.024329,0.004033,0.033761
39.783000,-0.033900,0.060000,-0.10,-0.04,-0.095695,-0.046552,-0.27,-0.44,-0.320666,-0.613945,-0.603456,10.655116,-0.320666,-0.613945,-0.095695,-0.046552,0.005662,0.059266
39.816000,-0.037300,0.057600,-0.11,-0.06,-0.105440,-0.057197,-0.23,-0.18,-0.236251,0.022218,4.026359,18.642263,-0.236251,0.022218,-0.105440,-0.057197,0.007195,0.023640
39.850000,-0.041200,0.054800,-0.11,-0.06,-0.111014,-0.047765,-0.19,0.21,-0.103633,0.480483,1.312563,5.943009,-0.103633,0.480483,-0.111014,-0.047765,0.007303,-0.011446
39.883000,-0.045200,0.053000,-0.12,-0.04,-0.115324,-0.031587,-0.22,0.40,-0.176793,0.411782,-4.463748,-6.556586,-0.176793,0.411782,-0.115324,-0.031587,0.007149,0.007382
39.916000,-0.049100,0.052400,-0.12,-0.02,-0.124651,-0.022335,-0.38,0.26,-0.390355,0.111466,-9.218121,-10.544372,-0.390355,0.111466,-0.124651,-0.022335,0.008018,0.046169
39.950000,-0.053100,0.052300,-0.14,-0.02,-0.143917,-0.024510,-0.58,-0.01,-0.719285,-0.215560,-3.870481,-4.334317,-0.719285,-0.215560,-0.143917,-0.024510,0.010656,0.108801
39.983000,-0.058100,0.051500,-0.17,-0.03,-0.167392,-0.031705,-0.63,-0.21,-0.622272,-0.184352,4.550282,1.018590,-0.622272,-0.184352,-0.167392,-0.031705,0.014513,0.110008
40.016000,-0.064300,0.050200,-0.19,-0.04,-0.185913,-0.038209,-0.51,-0.29,-0.445863,-0.203619,8.753218,-1.930768,-0.445863,-0.203619,-0.185913,-0.038209,0.018012,0.090672
40.050000,-0.071400,0.048900,-0.20,-0.05,-0.194791,-0.046660,-0.26,-0.27,-0.083107,-0.282126,6.510706,-0.735092,-0.083107,-0.282126,-0.194791,-0.046660,0.020060,0.029353
40.083000,-0.078200,0.047400,-0.21,-0.06,-0.196212,-0.055362,0.01,-0.09,-0.011268,-0.183082,3.710111,9.785777,-0.011268,-0.183082,-0.196212,-0.055362,0.020782,0.012347
40.116000,-0.085000,0.045100,-0.20,-0.06,-0.193068,-0.053033,0.23,0.27,0.201735,0.350185,7.163050,17.622159,0.201735,0.350185,-0.193068,-0.053033,0.020044,-0.057520
40.150000,-0.091900,0.042600,-0.19,-0.04,-0.182323,-0.031587,0.31,0.65,0.395787,0.867672,0.328036,8.119367,0.395787,0.867672,-0.182323,-0.031587,0.017120,-0.099568
40.183000,-0.098100,0.041400,-0.18,-0.01,-0.171593,-0.001317,0.15,0.78,0.177682,0.836146,-12.903989,-8.590114,0.177682,0.836146,-0.171593,-0.001317,0.014723,-0.031591
40.216000,-0.103300,0.042200,-0.17,0.02,-0.174999,0.019679,-0.22,0.54,-0.389812,0.360863,-16.248496,-16.775232,-0.389812,0.360863,-0.174999,0.019679,0.015506,0.075318
40.250000,-0.108600,0.043900,-0.19,0.03,-0.195919,0.022505,-0.55,0.13,-0.777858,-0.160937,-2.155460,-8.308991,-0.777858,-0.160937,-0.195919,0.022505,0.019445,0.148775
40.283000,-0.115400,0.044900,-0.22,0.02,-0.219213,0.015977,-0.55,-0.16,-0.522610,-0.174532,12.781358,2.073961,-0.522610,-0.174532,-0.219213,0.015977,0.024155,0.111775
40.317000,-0.123700,0.045400,-0.24,0.01,-0.228625,0.011397,-0.21,-0.15,-0.013698,-0.072732,16.665565,5.480521,-0.013698,-0.072732,-0.228625,0.011397,0.026200,0.002303
40.350000,-0.132300,0.045600,-0.23,0.01,-0.219983,0.012896,0.19,0.07,0.468093,0.167844,4.907821,6.771666,0.468093,0.167844,-0.219983,0.012896,0.024279,-0.100808
40.383000,-0.139800,0.045700,-0.22,0.02,-0.206018,0.021941,0.28,0.29,0.278779,0.354664,-10.397922,4.427285,0.278779,0.354664,-0.206018,0.021941,0.021462,-0.049652
40.416000,-0.146500,0.046400,-0.20,0.03,-0.203598,0.036076,-0.10,0.46,-0.183095,0.465545,-20.103056,1.018402,-0.183095,0.465545,-0.203598,0.036076,0.021377,0.054073
40.450000,-0.152700,0.048100,-0.22,0.05,-0.223376,0.051908,-0.71,0.64,-0.965646,0.485125,-18.493921,5.784132,-0.965646,0.485125,-0.223376,0.051908,0.026296,0.240884
40.483000,-0.159700,0.049900,-0.26,0.07,-0.263115,0.074427,-1.07,0.86,-1.273973,0.858897,2.366105,12.052916,-1.273973,0.858897,-0.263115,0.074427,0.037384,0.399126
40.517000,-0.169100,0.052200,-0.30,0.11,-0.300077,0.109781,-0.86,1.02,-0.799789,1.175561,24.662936,2.442785,-0.799789,1.175561,-0.300077,0.109781,0.051049,0.369053
40.550000,-0.181000,0.056400,-0.33,0.15,-0.310246,0.147491,-0.23,0.95,0.201038,0.969843,24.010913,-14.174812,0.201038,0.969843,-0.310246,0.147491,0.059003,0.080672
40.583000,-0.192700,0.062500,-0.32,0.18,-0.294163,0.169799,0.37,0.58,0.655927,0.327531,2.228683,-16.213853,0.655927,0.327531,-0.294163,0.169799,0.057682,-0.137335
40.617000,-0.202400,0.069200,-0.29,0.19,-0.274673,0.174123,0.64,0.10,0.450401,-0.043287,-6.015838,-9.040200,0.450401,-0.043287,-0.274673,0.174123,0.052882,-0.131250
40.650000,-0.211100,0.075700,-0.27,0.18,-0.260860,0.168023,0.67,-0.23,0.397047,-0.284229,4.245326,-1.770750,0.397047,-0.284229,-0.260860,0.168023,0.048140,-0.151331
40.683000,-0.219900,0.081200,-0.25,0.17,-0.242442,0.159230,0.70,-0.43,0.703525,-0.239611,8.927894,-2.861938,0.703525,-0.239611,-0.242442,0.159230,0.042066,-0.208717
40.717000,-0.228300,0.086400,-0.22,0.15,-0.214643,0.146454,0.77,-0.69,0.893492,-0.558279,0.022306,-14.924618,0.893492,-0.558279,-0.214643,0.146454,0.033760,-0.273544
40.750000,-0.235200,0.091700,-0.19,0.13,-0.186924,0.117246,0.71,-1.05,0.692688,-1.157828,-10.487573,-15.420749,0.692688,-1.157828,-0.186924,0.117246,0.024344,-0.265231
40.783000,-0.240600,0.096000,-0.17,0.08,-0.170400,0.071360,0.51,-1.31,0.289594,-1.471860,-7.627836,0.508030,0.289594,-1.471860,-0.170400,0.071360,0.017064,-0.154379
40.817000,-0.245800,0.097700,-0.16,0.03,-0.162168,0.025797,0.33,-1.28,0.235801,-1.154352,2.440345,12.674157,0.235801,-1.154352,-0.162168,0.025797,0.013482,-0.068019
40.850000,-0.251300,0.097100,-0.15,-0.01,-0.151670,-0.006397,0.30,-1.07,0.390334,-0.760895,4.011936,6.225459,0.390334,-0.760895,-0.151670,-0.006397,0.011522,-0.054335
40.883000,-0.256500,0.096100,-0.14,-0.04,-0.137110,-0.031652,0.33,-0.86,0.440765,-0.761345,-2.157963,-4.217847,0.440765,-0.761345,-0.137110,-0.031652,0.009901,-0.036335
40.917000,-0.260800,0.095100,-0.13,-0.06,-0.124968,-0.060508,0.28,-0.67,0.252655,-0.897690,-6.899770,5.370137,0.252655,-0.897690,-0.124968,-0.060508,0.009639,0.022744
40.950000,-0.264600,0.092400,-0.12,-0.09,-0.120314,-0.082966,0.13,-0.40,0.029065,-0.373824,-4.477938,18.797025,0.029065,-0.373824,-0.120314,-0.082966,0.010679,0.027518
40.983000,-0.268500,0.088300,-0.12,-0.10,-0.120741,-0.085309,-0.03,-0.11,-0.040753,0.190570,-1.790273,8.162300,-0.040753,0.190570,-0.120741,-0.085309,0.010928,-0.011337
41.017000,-0.272500,0.084900,-0.12,-0.09,-0.123264,-0.078822,-0.10,0.01,-0.095662,0.110029,0.545467,-10.984424,-0.095662,0.110029,-0.123264,-0.078822,0.010703,0.003119
41.050000,-0.276700,0.082900,-0.13,-0.08,-0.125267,-0.083769,-0.06,-0.14,-0.016729,-0.407657,1.488712,-12.131593,-0.016729,-0.407657,-0.125267,-0.083769,0.011355,0.036244
41.083000,-0.281100,0.080500,-0.13,-0.10,-0.125654,-0.101486,-0.01,-0.33,-0.006717,-0.567434,1.346137,4.257192,-0.006717,-0.567434,-0.125654,-0.101486,0.013044,0.058431
41.117000,-0.285500,0.076500,-0.13,-0.12,-0.124582,-0.114781,0.02,-0.30,0.063374,-0.176933,-0.587638,12.151030,0.063374,-0.176933,-0.124582,-0.114781,0.014348,0.012413
41.150000,-0.289500,0.072000,-0.13,-0.12,-0.123977,-0.115007,0.06,-0.04,-0.021795,0.143865,0.868495,5.862036,-0.021795,0.143865,-0.123977,-0.115007,0.014298,-0.013843
41.184000,-0.293800,0.067900,-0.12,-0.12,-0.122309,-0.108355,0.11,0.24,0.129479,0.233579,4.075238,3.161195,0.129479,0.233579,-0.122309,-0.108355,0.013350,-0.041146
41.217000,-0.298200,0.064200,-0.12,-0.10,-0.116456,-0.097848,0.12,0.41,0.193361,0.382496,-1.137253,3.200052,0.193361,0.382496,-0.116456,-0.097848,0.011568,-0.059944
41.250000,-0.302000,0.061000,-0.11,-0.09,-0.111894,-0.083591,0.06,0.52,0.055008,0.457110,-6.136040,4.346557,0.055008,0.457110,-0.111894,-0.083591,0.009754,-0.044365
41.283000,-0.305400,0.058200,-0.11,-0.07,-0.113834,-0.064635,-0.03,0.58,-0.154443,0.639742,-2.484351,0.833723,-0.154443,0.639742,-0.113834,-0.064635,0.008568,-0.023769
41.317000,-0.309300,0.056200,-0.12,-0.05,-0.118463,-0.044925,-0.09,0.52,-0.092265,0.489181,3.916837,-5.656313,-0.092265,0.489181,-0.118463,-0.044925,0.008026,-0.011047
41.350000,-0.313500,0.055100,-0.12,-0.03,-0.119108,-0.031536,-0.05,0.31,0.047790,0.280666,1.404872,-9.920734,0.047790,0.280666,-0.119108,-0.031536,0.007591,-0.014543
41.384000,-0.317600,0.054800,-0.12,-0.02,-0.118149,-0.028961,0.01,0.08,0.000998,-0.108380,-0.120156,-5.246456,0.000998,-0.108380,-0.118149,-0.028961,0.007399,0.003021
41.417000,-0.321700,0.054000,-0.12,-0.03,-0.117280,-0.032183,0.02,-0.04,0.045377,-0.044575,-1.376050,3.355760,0.045377,-0.044575,-0.117280,-0.032183,0.007395,-0.003887
41.450000,-0.325500,0.052700,-0.12,-0.03,-0.117792,-0.032086,0.01,-0.03,-0.067963,0.053804,-0.090351,2.971233,-0.067963,0.053804,-0.117792,-0.032086,0.007452,0.006279
41.484000,-0.329500,0.051500,-0.12,-0.03,-0.118182,-0.028726,0.07,0.07,0.065920,0.137303,5.056163,0.630454,0.065920,0.137303,-0.118182,-0.028726,0.007396,-0.011735
41.517000,-0.333700,0.050700,-0.12,-0.03,-0.113063,-0.024351,0.19,0.20,0.236347,0.130371,5.227103,3.250563,0.236347,0.130371,-0.113063,-0.024351,0.006688,-0.029897
41.550000,-0.337700,0.049800,-0.11,-0.02,-0.102225,-0.016240,0.32,0.33,0.383183,0.355791,0.918793,6.265433,0.383183,0.355791,-0.102225,-0.016240,0.005357,-0.044949
41.584000,-0.341000,0.049100,-0.09,-0.00,-0.090211,-0.001455,0.38,0.41,0.312309,0.489524,-1.625966,0.790915,0.312309,0.489524,-0.090211,-0.001455,0.004070,-0.028886
41.617000,-0.343800,0.049200,-0.08,0.01,-0.079744,0.014126,0.38,0.38,0.311753,0.395595,0.677222,-6.350742,0.311753,0.395595,-0.079744,0.014126,0.003279,-0.019272
41.650000,-0.346300,0.050200,-0.07,0.03,-0.068481,0.022864,0.39,0.24,0.359922,0.116282,3.340248,-6.598240,0.359922,0.116282,-0.068481,0.022864,0.002606,-0.021989
41.684000,-0.348600,0.051400,-0.06,0.03,-0.053748,0.024425,0.42,0.09,0.492809,0.000009,1.040618,-0.674006,0.492809,0.000009,-0.053748,0.024425,0.001743,-0.026487
41.717000,-0.350300,0.052300,-0.04,0.03,-0.038264,0.025038,0.33,0.03,0.377608,0.050620,-7.697751,2.604364,0.377608,0.050620,-0.038264,0.025038,0.001046,-0.013181
41.750000,-0.351200,0.053000,-0.03,0.03,-0.031512,0.028219,0.04,0.03,-0.011120,0.124980,-14.837981,-0.367347,-0.011120,0.124980,-0.031512,0.028219,0.000895,0.003877
41.784000,-0.351600,0.054000,-0.03,0.03,-0.041082,0.030894,-0.36,0.01,-0.533642,0.016051,-12.024834,-4.715704,-0.533642,0.016051,-0.041082,0.030894,0.001321,0.022419
41.817000,-0.352600,0.055300,-0.06,0.03,-0.063570,0.028602,-0.57,-0.05,-0.713151,-0.138692,4.109777,-2.278327,-0.713151,-0.138692,-0.063570,0.028602,0.002430,0.041368
41.851000,-0.355100,0.056400,-0.08,0.03,-0.081372,0.024050,-0.34,-0.03,-0.261864,-0.094931,19.671054,5.513038,-0.261864,-0.094931,-0.081372,0.024050,0.003600,0.019025
41.884000,-0.358800,0.057000,-0.09,0.02,-0.077588,0.025565,0.24,0.13,0.488689,0.200154,20.872268,9.232042,0.488689,0.200154,-0.077588,0.025565,0.003337,-0.032800
41.917000,-0.362300,0.057500,-0.07,0.03,-0.051003,0.037109,0.75,0.34,1.001376,0.457272,5.008034,4.789761,1.001376,0.457272,-0.051003,0.037109,0.001989,-0.034104
41.950000,-0.363900,0.058700,-0.03,0.05,-0.018858,0.053787,0.83,0.42,0.802218,0.478419,-13.761537,-5.401855,0.802218,0.478419,-0.018858,0.053787,0.001624,0.010604
41.984000,-0.363500,0.061000,0.00,0.07,-0.001554,0.064659,0.46,0.28,0.191266,0.141531,-18.261702,-9.431007,0.191266,0.141531,-0.001554,0.064659,0.002092,0.008854
42.017000,-0.362600,0.063700,0.01,0.07,-0.004219,0.065288,-0.05,0.04,-0.305392,-0.085304,-8.252516,-4.698380,-0.305392,-0.085304,-0.004219,0.065288,0.002140,-0.004281
42.050000,-0.362500,0.066200,-0.01,0.07,-0.016240,0.060629,-0.34,-0.11,-0.348221,-0.161236,2.630713,1.461508,-0.348221,-0.161236,-0.016240,0.060629,0.001970,-0.004120
42.084000,-0.363200,0.068100,-0.03,0.06,-0.025591,0.057302,-0.26,-0.13,-0.170210,-0.027874,8.498035,2.693865,-0.170210,-0.027874,-0.025591,0.057302,0.001969,0.002759
42.117000,-0.364500,0.069800,-0.03,0.06,-0.025599,0.056706,0.03,-0.10,0.173110,-0.023108,9.222574,-1.374658,0.173110,-0.023108,-0.025599,0.056706,0.001935,-0.005742
42.151000,-0.365800,0.071800,-0.02,0.06,-0.015476,0.054622,0.29,-0.11,0.394563,-0.109420,3.271469,-3.861566,0.394563,-0.109420,-0.015476,0.054622,0.001612,-0.012083
42.184000,-0.366300,0.073900,-0.01,0.05,-0.001699,0.048457,0.37,-0.15,0.380560,-0.240754,-4.543363,-0.289642,0.380560,-0.240754,-0.001699,0.048457,0.001175,-0.012313
42.217000,-0.365900,0.075300,0.01,0.04,0.007309,0.041812,0.28,-0.21,0.142403,-0.146069,-5.088501,1.163329,0.142403,-0.146069,0.007309,0.041812,0.000901,-0.005067
42.251000,-0.365400,0.076500,0.01,0.04,0.010657,0.036082,0.11,-0.28,0.060728,-0.212250,-3.089468,-4.465875,0.060728,-0.212250,0.010657,0.036082,0.000708,-0.007011
42.284000,-0.364900,0.077900,0.01,0.03,0.010306,0.025482,-0.07,-0.37,-0.082686,-0.415352,-4.119288,-5.691971,-0.082686,-0.415352,0.010306,0.025482,0.000378,-0.011436
42.317000,-0.364400,0.078800,0.01,0.01,0.005373,0.008790,-0.19,-0.47,-0.198296,-0.541932,-2.844634,0.480257,-0.198296,-0.541932,0.005373,0.008790,0.000053,-0.005829
42.351000,-0.364100,0.078700,-0.00,-0.01,-0.002534,-0.007564,-0.19,-0.50,-0.239064,-0.408250,3.291819,2.205708,-0.239064,-0.408250,-0.002534,-0.007564,0.000032,0.003694
42.384000,-0.364400,0.078200,-0.01,-0.02,-0.006798,-0.021446,-0.06,-0.41,0.006403,-0.401059,7.548325,3.044937,0.006403,-0.401059,-0.006798,-0.021446,0.000253,0.008558
42.417000,-0.365000,0.077200,-0.01,-0.04,-0.002903,-0.031714,0.11,-0.23,0.207523,-0.190152,4.350961,6.228676,0.207523,-0.190152,-0.002903,-0.031714,0.000507,0.005428
42.450000,-0.365300,0.075700,0.00,-0.04,0.005654,-0.035045,0.18,-0.04,0.259126,-0.008426,-3.953416,6.157092,0.259126,-0.008426,0.005654,-0.035045,0.000630,0.001760
42.484000,-0.364800,0.074100,0.01,-0.04,0.009976,-0.031674,0.08,0.08,-0.021946,0.179562,-7.831582,-0.161942,-0.021946,0.179562,0.009976,-0.031674,0.000551,-0.005906
42.518000,-0.364100,0.073200,0.01,-0.03,0.005914,-0.028317,-0.08,0.09,-0.194755,0.000889,-2.176189,-4.301371,-0.194755,0.000889,0.005914,-0.028317,0.000418,-0.001177
42.551000,-0.363800,0.072400,0.00,-0.03,-0.000660,-0.029320,-0.16,0.05,-0.169479,-0.040811,2.784511,1.270328,-0.169479,-0.040811,-0.000660,-0.029320,0.000430,0.001309
42.584000,-0.364100,0.071400,-0.00,-0.03,-0.004394,-0.029092,-0.14,0.03,-0.049893,0.059427,2.751669,2.198113,-0.049893,0.059427,-0.004394,-0.029092,0.000433,-0.001510
42.617000,-0.364500,0.070300,-0.01,-0.03,-0.005295,-0.026565,-0.10,0.04,-0.023346,0.079996,-2.681686,0.472062,-0.023346,0.079996,-0.005295,-0.026565,0.000367,-0.002002
42.651000,-0.364500,0.069300,-0.01,-0.02,-0.008927,-0.023696,-0.10,0.01,-0.188821,0.067691,-2.850640,-4.484494,-0.188821,0.067691,-0.008927,-0.023696,0.000321,0.000082
42.684000,-0.364700,0.068800,-0.01,-0.02,-0.015320,-0.025738,-0.07,-0.10,-0.154306,-0.192850,5.438621,-6.022307,-0.154306,-0.192850,-0.015320,-0.025738,0.000449,0.007327
42.717000,-0.365500,0.068100,-0.02,-0.03,-0.015847,-0.034219,0.04,-0.21,0.131442,-0.280375,7.269057,0.104063,0.131442,-0.280375,-0.015847,-0.034219,0.000711,0.007511
42.751000,-0.366400,0.066800,-0.01,-0.04,-0.008544,-0.042673,0.17,-0.21,0.272525,-0.196614,1.428873,3.943150,0.272525,-0.196614,-0.008544,-0.042673,0.000947,0.006062
42.784000,-0.366700,0.065100,-0.00,-0.05,0.000347,-0.046761,0.20,-0.09,0.221115,-0.035044,-5.335066,5.392037,0.221115,-0.035044,0.000347,-0.046761,0.001093,0.001715
42.817000,-0.366200,0.063300,0.00,-0.05,0.003617,-0.044767,0.12,0.11,-0.025858,0.152423,-4.626454,5.690304,-0.025858,0.152423,0.003617,-0.044767,0.001009,-0.006917
42.851000,-0.365900,0.061600,0.01,-0.04,0.002009,-0.036456,0.04,0.27,-0.038343,0.321130,3.375282,2.589136,-0.038343,0.321130,0.002009,-0.036456,0.000667,-0.011784
42.884000,-0.366000,0.060300,0.00,-0.03,0.003756,-0.025261,0.04,0.32,0.139482,0.315613,2.388747,-2.065460,0.139482,0.315613,0.003756,-0.025261,0.000326,-0.007449
42.918000,-0.365900,0.059700,0.01,-0.02,0.007987,-0.016250,0.06,0.26,0.091347,0.204644,-2.007644,-4.577216,0.091347,0.204644,0.007987,-0.016250,0.000164,-0.002596
42.951000,-0.365600,0.059600,0.01,-0.01,0.010086,-0.012025,0.03,0.20,0.025256,0.063882,-3.328843,0.430051,0.025256,0.063882,0.010086,-0.012025,0.000123,-0.000513
42.984000,-0.365000,0.059200,0.01,-0.01,0.008568,-0.007368,-0.04,0.20,-0.107921,0.226175,-2.214555,4.556363,-0.107921,0.226175,0.008568,-0.007368,0.000064,-0.002591
43.017000,-0.364600,0.058800,0.01,0.00,0.004743,0.001997,-0.06,0.23,-0.095477,0.307858,3.157534,0.513035,-0.095477,0.307858,0.004743,0.001997,0.000013,0.000162
43.051000,-0.364700,0.059000,0.00,0.01,0.004220,0.011809,-0.02,0.21,0.065822,0.243994,3.549523,-5.621787,0.065822,0.243994,0.004220,0.011809,0.000079,0.003159
43.084000,-0.364700,0.059800,0.01,0.02,0.007376,0.015618,0.02,0.11,0.095980,-0.016156,-2.327523,-4.243819,0.095980,-0.016156,0.007376,0.015618,0.000149,0.000456
43.118000,-0.364300,0.060500,0.01,0.02,0.008060,0.014743,-0.02,-0.01,-0.066747,-0.018496,-4.513834,-0.531149,-0.066747,-0.018496,0.008060,0.014743,0.000141,-0.000811
43.151000,-0.363900,0.061100,0.01,0.01,0.003839,0.013189,-0.12,-0.04,-0.174145,-0.059841,-2.571378,1.748442,-0.174145,-0.059841,0.003839,0.013189,0.000094,-0.001458
43.184000,-0.363700,0.061400,-0.00,0.01,-0.003286,0.013601,-0.22,0.04,-0.233584,0.093874,-0.385784,4.019288,-0.233584,0.093874,-0.003286,0.013601,0.000098,0.002044
43.218000,-0.363900,0.061800,-0.01,0.02,-0.010856,0.018395,-0.22,0.16,-0.200116,0.182287,2.104415,2.551457,-0.200116,0.182287,-0.010856,0.018395,0.000228,0.005526
43.251000,-0.364500,0.062400,-0.02,0.02,-0.016164,0.026043,-0.16,0.24,-0.110730,0.256282,1.929613,0.724085,-0.110730,0.256282,-0.016164,0.026043,0.000470,0.008464
43.284000,-0.365200,0.063300,-0.02,0.03,-0.019250,0.034367,-0.07,0.20,-0.069830,0.212464,1.732451,-3.429499,-0.069830,0.212464,-0.019250,0.034367,0.000776,0.008646
43.318000,-0.365900,0.064700,-0.02,0.04,-0.020200,0.038745,0.05,0.04,0.022771,0.025260,3.896693,-8.242730,0.022771,0.025260,-0.020200,0.038745,0.000955,0.000519
43.351000,-0.366700,0.066400,-0.02,0.04,-0.016747,0.034122,0.18,-0.17,0.183189,-0.285975,5.072630,-5.549754,0.183189,-0.285975,-0.016747,0.034122,0.000722,-0.012826
43.384000,-0.367500,0.067700,-0.01,0.03,-0.007792,0.023337,0.26,-0.31,0.325080,-0.322191,1.441882,0.033500,0.325080,-0.322191,-0.007792,0.023337,0.000303,-0.010052
43.418000,-0.367700,0.068400,0.00,0.01,0.002610,0.012477,0.23,-0.30,0.255319,-0.297199,-5.910991,3.904137,0.255319,-0.297199,0.002610,0.012477,0.000081,-0.003042
43.451000,-0.367200,0.068400,0.01,0.00,0.006653,0.005846,0.09,-0.20,-0.021010,-0.090016,-6.363449,4.260656,-0.021010,-0.090016,0.006653,0.005846,0.000039,-0.000666
43.484000,-0.366700,0.068400,0.01,0.00,0.003750,0.003912,-0.06,-0.07,-0.129153,-0.034499,-1.356667,1.413804,-0.129153,-0.034499,0.003750,0.003912,0.000015,-0.000619
43.518000,-0.366500,0.068500,0.00,0.00,-0.000840,0.003751,-0.14,0.03,-0.127151,0.022500,1.204579,1.634817,-0.127151,0.022500,-0.000840,0.003751,0.000007,0.000191
43.551000,-0.366700,0.068500,-0.00,0.00,-0.004213,0.005362,-0.12,0.05,-0.067948,0.062879,1.776843,-0.021953,-0.067948,0.062879,-0.004213,0.005362,0.000023,0.000623
43.585000,-0.367000,0.068600,-0.01,0.01,-0.005703,0.006829,-0.07,-0.01,-0.026509,0.007021,-0.351186,-3.759617,-0.026509,0.007021,-0.005703,0.006829,0.000040,0.000199
43.618000,-0.367100,0.069100,-0.01,0.01,-0.007412,0.004156,-0.02,-0.10,-0.069809,-0.168569,0.343621,-5.029729,-0.069809,-0.168569,-0.007412,0.004156,0.000036,-0.000183
43.651000,-0.367400,0.069400,-0.01,-0.00,-0.008518,-0.003929,0.05,-0.21,0.021192,-0.287642,4.610229,0.072272,0.021192,-0.287642,-0.008518,-0.003929,0.000044,0.000950
43.685000,-0.367900,0.069000,-0.01,-0.01,-0.004616,-0.012176,0.15,-0.28,0.205757,-0.192577,4.058985,0.392887,0.205757,-0.192577,-0.004616,-0.012176,0.000085,0.001395
43.718000,-0.368100,0.068500,0.00,-0.02,0.003693,-0.020004,0.23,-0.26,0.263700,-0.265061,0.013717,0.130532,0.263700,-0.265061,0.003693,-0.020004,0.000207,0.006276
43.751000,-0.367900,0.067800,0.01,-0.03,0.011979,-0.027422,0.20,-0.16,0.201993,-0.153167,-4.197734,4.327687,0.201993,-0.153167,0.011979,-0.027422,0.000448,0.006620
43.785000,-0.367300,0.066600,0.02,-0.03,0.015521,-0.029963,0.03,0.00,-0.008890,0.014398,-7.641074,7.474752,-0.008890,0.014398,0.015521,-0.029963,0.000569,-0.000569
43.818000,-0.366400,0.065100,0.01,-0.03,0.010629,-0.024474,-0.19,0.13,-0.270584,0.283244,-6.372602,1.596034,-0.270584,0.283244,0.010629,-0.024474,0.000356,-0.009808
43.851000,-0.365800,0.064400,0.00,-0.02,-0.001156,-0.017202,-0.30,0.17,-0.386592,0.115687,1.639810,-5.378935,-0.386592,0.115687,-0.001156,-0.017202,0.000149,-0.001543
43.885000,-0.366100,0.064100,-0.01,-0.01,-0.011207,-0.015484,-0.25,0.10,-0.178013,-0.004398,7.215052,-1.902619,-0.178013,-0.004398,-0.011207,-0.015484,0.000183,0.002063
43.918000,-0.366900,0.063700,-0.02,-0.01,-0.013417,-0.015946,-0.06,0.02,0.045269,-0.011488,6.140306,0.535594,0.045269,-0.011488,-0.013417,-0.015946,0.000217,-0.000424
43.951000,-0.367600,0.063100,-0.01,-0.02,-0.008802,-0.015941,0.14,-0.01,0.207355,0.014173,2.172887,1.097303,0.207355,0.014173,-0.008802,-0.015941,0.000166,-0.002051
43.985000,-0.367900,0.062500,-0.00,-0.02,-0.001701,-0.014873,0.21,-0.01,0.189884,0.038894,-1.900817,-1.477036,0.189884,0.038894,-0.001701,-0.014873,0.000112,-0.000902
44.018000,-0.367900,0.062100,0.00,-0.01,0.003356,-0.015389,0.14,-0.04,0.096243,-0.071653,-3.930077,-2.077503,0.096243,-0.071653,0.003356,-0.015389,0.000124,0.001426
44.051000,-0.367500,0.061600,0.01,-0.02,0.004034,-0.018116,0.00,-0.07,-0.058041,-0.079950,-4.682210,-0.168378,-0.058041,-0.079950,0.004034,-0.018116,0.000172,0.001214
44.085000,-0.367100,0.061000,0.00,-0.02,-0.000362,-0.020984,-0.11,-0.06,-0.182262,-0.076930,-0.375269,1.957934,-0.182262,-0.076930,-0.000362,-0.020984,0.000220,0.001680
44.118000,-0.367300,0.060200,-0.00,-0.02,-0.005270,-0.021549,-0.15,0.05,-0.092915,0.057956,2.284419,5.015761,-0.092915,0.057956,-0.005270,-0.021549,0.000246,-0.000759
44.151000,-0.367600,0.059300,-0.01,-0.02,-0.007720,-0.016484,-0.09,0.22,-0.048266,0.244339,1.696338,6.091806,-0.048266,0.244339,-0.007720,-0.016484,0.000166,-0.003655
44.185000,-0.367800,0.058600,-0.01,-0.01,-0.007966,-0.004664,0.08,0.39,0.050960,0.438454,5.964023,3.388424,0.050960,0.438454,-0.007966,-0.004664,0.000043,-0.002451
44.218000,-0.368300,0.058500,-0.01,0.01,-0.001552,0.010977,0.28,0.47,0.329649,0.463424,7.690408,-0.116142,0.329649,0.463424,-0.001552,0.010977,0.000061,0.004575
44.251000,-0.368700,0.059100,0.01,0.03,0.013079,0.026501,0.39,0.45,0.494759,0.432656,-0.321537,-3.589059,0.494759,0.432656,0.013079,0.026501,0.000437,0.017937
44.285000,-0.368000,0.060400,0.03,0.04,0.027289,0.038068,0.33,0.33,0.302002,0.241859,-9.425987,-4.327928,0.302002,0.241859,0.027289,0.038068,0.001097,0.017448
44.318000,-0.366400,0.062000,0.04,0.05,0.031401,0.044708,0.13,0.16,-0.052231,0.147262,-6.607117,-4.499836,-0.052231,0.147262,0.031401,0.044708,0.001492,0.004944
44.351000,-0.365100,0.063800,0.03,0.05,0.028123,0.046190,-0.09,-0.01,-0.118166,-0.058897,-1.135021,-4.333598,-0.118166,-0.058897,0.028123,0.046190,0.001462,-0.006044
44.385000,-0.364200,0.065500,0.03,0.05,0.023197,0.042723,-0.22,-0.16,-0.168971,-0.140261,-1.714401,-3.539459,-0.168971,-0.140261,0.023197,0.042723,0.001182,-0.009912
44.418000,-0.363400,0.067100,0.02,0.04,0.016356,0.035244,-0.24,-0.26,-0.226874,-0.290306,-0.845943,-1.948244,-0.226874,-0.290306,0.016356,0.035244,0.000755,-0.013942
44.451000,-0.362800,0.068200,0.01,0.03,0.008716,0.025617,-0.18,-0.29,-0.205344,-0.260390,3.124653,1.417631,-0.205344,-0.260390,0.008716,0.025617,0.000366,-0.008460
44.485000,-0.362800,0.068900,0.00,0.02,0.004505,0.017496,-0.09,-0.24,-0.035992,-0.209526,4.991275,2.720863,-0.035992,-0.209526,0.004505,0.017496,0.000163,-0.003828
44.518000,-0.363000,0.069300,0.00,0.01,0.005594,0.012414,-0.02,-0.13,0.078722,-0.087931,-0.290520,3.234019,0.078722,-0.087931,0.005594,0.012414,0.000093,-0.000651
44.552000,-0.362700,0.069500,0.01,0.01,0.006463,0.010867,-0.00,-0.05,-0.042138,-0.013532,-3.881036,1.045486,-0.042138,-0.013532,0.006463,0.010867,0.000080,-0.000419
44.585000,-0.362300,0.069700,0.00,0.01,0.003358,0.010457,-0.04,-0.04,-0.124862,-0.025321,0.576876,-2.467087,-0.124862,-0.025321,0.003358,0.010457,0.000060,-0.000684
44.618000,-0.362300,0.070200,0.00,0.01,0.000779,0.007476,-0.06,-0.08,-0.019423,-0.148248,2.099588,-2.516176,-0.019423,-0.148248,0.000779,0.007476,0.000028,-0.001123
44.652000,-0.362400,0.070600,-0.00,0.00,0.000403,0.002008,-0.04,-0.07,-0.008429,-0.146671,0.340066,3.886957,-0.008429,-0.146671,0.000403,0.002008,0.000002,-0.000298
44.685000,-0.362400,0.070400,-0.00,-0.00,0.000483,0.000805,-0.00,0.03,0.010977,0.089015,-0.282464,7.437229,0.010977,0.089015,0.000483,0.000805,0.000000,0.000077
44.718000,-0.362300,0.070100,-0.00,0.00,0.000393,0.007495,0.04,0.15,-0.009187,0.276338,1.599769,0.668235,-0.009187,0.276338,0.000393,0.007495,0.000028,0.002068
44.751000,-0.362400,0.070400,0.00,0.01,0.002066,0.014945,0.09,0.16,0.109631,0.132980,2.445787,-5.698838,0.109631,0.132980,0.002066,0.014945,0.000114,0.002214
44.785000,-0.362400,0.071200,0.01,0.02,0.006292,0.016281,0.10,0.03,0.124872,-0.055531,-1.127932,-6.032986,0.124872,-0.055531,0.006292,0.016281,0.000152,-0.000118
44.818000,-0.362100,0.072100,0.01,0.02,0.009359,0.011168,0.08,-0.09,0.049897,-0.215369,-2.377633,1.013011,0.049897,-0.215369,0.009359,0.011168,0.000106,-0.001938
44.852000,-0.361600,0.072400,0.01,0.01,0.009921,0.007067,0.04,-0.07,-0.008117,-0.005502,-0.054205,5.789042,-0.008117,-0.005502,0.009921,0.007067,0.000074,-0.000119
44.885000,-0.361200,0.072300,0.01,0.01,0.010362,0.009044,0.02,0.01,0.039403,0.106162,1.290874,2.935867,0.039403,0.106162,0.010362,0.009044,0.000095,0.001368
44.918000,-0.361000,0.072400,0.01,0.01,0.012081,0.013837,0.01,-0.02,0.054474,0.126110,-0.005911,-7.821834,0.054474,0.126110,0.012081,0.013837,0.000169,0.002403
44.952000,-0.360600,0.073300,0.01,0.01,0.013585,0.009778,-0.03,-0.30,0.014445,-0.403426,-5.192414,-16.132955,0.014445,-0.403426,0.013585,0.009778,0.000140,-0.003748
44.985000,-0.359800,0.073900,0.01,-0.00,0.009547,-0.012159,-0.12,-0.79,-0.244425,-0.880033,-3.357652,-14.540586,-0.244425,-0.880033,0.009547,-0.012159,0.000119,0.008367
45.018000,-0.359500,0.073700,0.00,-0.04,0.001895,-0.050274,-0.19,-1.21,-0.182505,-1.318052,2.126366,-7.550516,-0.182505,-1.318052,0.001895,-0.050274,0.001266,0.065918
45.052000,-0.359600,0.071900,-0.00,-0.09,-0.003567,-0.096190,-0.16,-1.20,-0.131228,-1.284264,3.293157,12.802901,-0.131228,-1.284264,-0.003567,-0.096190,0.004633,0.124001
45.085000,-0.359900,0.067600,-0.01,-0.14,-0.005426,-0.127515,-0.06,-0.61,0.017396,-0.472166,2.122383,31.565658,0.017396,-0.472166,-0.005426,-0.127515,0.008145,0.060114
45.118000,-0.360200,0.061600,-0.01,-0.14,-0.004889,-0.123926,0.02,0.33,0.006259,0.676841,0.531551,29.816142,0.006259,0.676841,-0.004889,-0.123926,0.007691,-0.083909
45.152000,-0.360500,0.056300,-0.00,-0.11,-0.003721,-0.087209,0.03,1.17,0.055605,1.397771,-1.253858,11.608446,0.055605,1.397771,-0.003721,-0.087209,0.003810,-0.122105
45.185000,-0.360400,0.053500,-0.00,-0.05,-0.003763,-0.037191,0.04,1.52,-0.050964,1.452314,-0.014373,-6.877366,-0.050964,1.452314,-0.003763,-0.037191,0.000699,-0.053821
45.219000,-0.360500,0.053200,-0.00,0.01,-0.003576,0.005615,0.11,1.28,0.083674,1.016873,5.884276,-14.954159,0.083674,1.016873,-0.003576,0.005615,0.000022,0.005410
45.252000,-0.360900,0.054500,0.00,0.04,0.002862,0.031665,0.20,0.68,0.284191,0.498036,3.416576,-17.950108,0.284191,0.498036,0.002862,0.031665,0.000505,0.016584
45.285000,-0.360900,0.056700,0.01,0.05,0.012912,0.037463,0.23,0.02,0.276372,-0.145199,-3.644410,-15.714131,0.276372,-0.145199,0.012912,0.037463,0.000785,-0.001871
45.318000,-0.360100,0.058600,0.02,0.04,0.019051,0.025533,0.15,-0.48,0.071801,-0.519096,-6.239631,-8.207982,0.071801,-0.519096,0.019051,0.025533,0.000507,-0.011886
45.352000,-0.359100,0.059600,0.02,0.01,0.018399,0.004209,-0.01,-0.70,-0.098161,-0.692223,-2.866470,-0.382636,-0.098161,-0.692223,0.018399,0.004209,0.000178,-0.004719
45.385000,-0.358500,0.059500,0.02,-0.02,0.014371,-0.017551,-0.16,-0.62,-0.130547,-0.544303,-1.252655,7.791210,-0.130547,-0.544303,0.014371,-0.017551,0.000257,0.007677
45.418000,-0.358000,0.058400,0.01,-0.03,0.008770,-0.030492,-0.22,-0.26,-0.197912,-0.184461,-2.329695,14.645187,-0.197912,-0.184461,0.008770,-0.030492,0.000503,0.003889
45.452000,-0.357600,0.056600,0.00,-0.04,0.000834,-0.027125,-0.19,0.21,-0.246977,0.378347,2.371257,14.181509,-0.246977,0.378347,0.000834,-0.027125,0.000368,-0.010469
45.485000,-0.357800,0.055200,-0.01,-0.02,-0.004322,-0.008091,-0.06,0.58,-0.032097,0.694319,8.169794,4.539421,-0.032097,0.694319,-0.004322,-0.008091,0.000042,-0.005479
45.519000,-0.358300,0.055000,-0.00,0.01,-0.000581,0.015985,0.15,0.66,0.244241,0.662966,6.315326,-7.215943,0.244241,0.662966,-0.000581,0.015985,0.000128,0.010456
45.552000,-0.358500,0.056100,0.01,0.04,0.010090,0.032035,0.29,0.37,0.353745,0.240632,0.134945,-15.287664,0.353745,0.240632,0.010090,0.032035,0.000564,0.011278
45.585000,-0.358100,0.057900,0.02,0.04,0.020907,0.031083,0.26,-0.14,0.252250,-0.297545,-6.133721,-15.623863,0.252250,-0.297545,0.020907,0.031083,0.000702,-0.003975
45.619000,-0.357000,0.059600,0.03,0.02,0.024978,0.012807,0.07,-0.59,-0.022751,-0.735168,-8.420584,-7.007118,-0.022751,-0.735168,0.024978,0.012807,0.000394,-0.009984
45.652000,-0.355700,0.060100,0.03,-0.01,0.019862,-0.013273,-0.14,-0.74,-0.256108,-0.739208,-3.485830,5.610167,-0.256108,-0.739208,0.019862,-0.013273,0.000285,0.004725
45.685000,-0.355000,0.059000,0.02,-0.03,0.010864,-0.033370,-0.24,-0.56,-0.242315,-0.412732,3.369166,11.481419,-0.242315,-0.412732,0.010864,-0.033370,0.000616,0.011140
45.719000,-0.354900,0.057100,0.00,-0.05,0.005366,-0.040903,-0.18,-0.22,-0.073459,-0.041808,4.221007,7.778121,-0.073459,-0.041808,0.005366,-0.040903,0.000851,0.001316
45.752000,-0.354900,0.055400,0.00,-0.05,0.004543,-0.039503,-0.02,0.10,0.020660,0.109268,3.279243,4.641075,0.020660,0.109268,0.004543,-0.039503,0.000791,-0.004223
45.785000,-0.354900,0.053900,0.00,-0.04,0.007370,-0.032600,0.09,0.31,0.132973,0.289982,0.666980,4.455120,0.132973,0.289982,0.007370,-0.032600,0.000559,-0.008473
45.819000,-0.354700,0.052700,0.01,-0.02,0.010973,-0.020800,0.10,0.37,0.066455,0.382526,-1.886567,0.296903,0.066455,0.382526,0.010973,-0.020800,0.000277,-0.007227
45.852000,-0.354200,0.052100,0.01,-0.01,0.012534,-0.008777,0.04,0.30,0.021223,0.295908,-3.224585,-5.780695,0.021223,0.295908,0.012534,-0.008777,0.000117,-0.002331
45.885000,-0.353500,0.052200,0.01,-0.00,0.010740,-0.003173,-0.00,0.10,-0.109137,0.020560,1.056344,-8.705793,-0.109137,0.020560,0.010740,-0.003173,0.000063,-0.001237
45.919000,-0.353300,0.052500,0.01,-0.00,0.010088,-0.007139,0.02,-0.14,0.083867,-0.238009,4.462139,-5.329724,0.083867,-0.238009,0.010088,-0.007139,0.000076,0.002545
45.952000,-0.353100,0.052400,0.01,-0.01,0.014092,-0.016996,0.08,-0.27,0.135158,-0.310175,0.124663,1.106113,0.135158,-0.310175,0.014092,-0.016996,0.000244,0.007177
45.985000,-0.352600,0.051700,0.02,-0.03,0.018287,-0.025632,0.09,-0.20,0.097779,-0.169459,-2.786910,6.928876,0.097779,-0.169459,0.018287,-0.025632,0.000496,0.006132
46.019000,-0.351800,0.050500,0.02,-0.03,0.019490,-0.026631,0.04,0.03,-0.027258,0.117101,-2.722950,8.123886,-0.027258,0.117101,0.019490,-0.026631,0.000545,-0.003650
46.052000,-0.351000,0.049200,0.02,-0.02,0.017734,-0.018637,-0.03,0.26,-0.065140,0.336093,0.035791,4.576013,-0.065140,0.336093,0.017734,-0.018637,0.000331,-0.007419
46.085000,-0.350400,0.048500,0.02,-0.01,0.015885,-0.005543,-0.06,0.38,-0.040630,0.405934,0.506242,-2.070795,-0.040630,0.405934,0.015885,-0.005543,0.000142,-0.002896
46.119000,-0.350000,0.048700,0.02,0.00,0.014508,0.005611,-0.07,0.38,-0.044061,0.248623,-0.492723,-1.331649,-0.044061,0.248623,0.014508,0.005611,0.000121,0.000756
46.152000,-0.349500,0.049100,0.01,0.02,0.012582,0.015289,-0.08,0.33,-0.071785,0.322953,-1.958955,0.546044,-0.071785,0.322953,0.012582,0.015289,0.000196,0.004034
46.186000,-0.348900,0.049700,0.01,0.03,0.008804,0.025093,-0.04,0.19,-0.128641,0.226222,3.195770,-4.901441,-0.128641,0.226222,0.008804,0.025093,0.000354,0.004544
46.219000,-0.348800,0.050700,0.01,0.03,0.008630,0.028953,0.07,-0.11,0.134800,-0.043034,7.573919,-14.454358,0.134800,-0.043034,0.008630,0.028953,0.000456,-0.000083
46.252000,-0.348800,0.052300,0.01,0.03,0.016549,0.016524,0.21,-0.59,0.308601,-0.707166,2.165987,-18.862628,0.308601,-0.707166,0.016549,0.016524,0.000273,-0.006578
46.286000,-0.348300,0.053300,0.02,-0.00,0.026868,-0.016890,0.24,-1.13,0.269738,-1.229176,-4.260307,-11.701484,0.269738,-1.229176,0.026868,-0.016890,0.000504,0.028008
46.319000,-0.347000,0.052600,0.03,-0.05,0.032686,-0.063786,0.18,-1.54,0.068756,-1.497752,-5.172566,-5.147024,0.068756,-1.497752,0.032686,-0.063786,0.002569,0.097784
46.352000,-0.345500,0.049800,0.04,-0.11,0.033047,-0.116959,0.10,-1.76,-0.020478,-1.617502,1.661198,-2.755079,-0.020478,-1.617502,0.033047,-0.116959,0.007386,0.188505
46.386000,-0.344500,0.045000,0.04,-0.17,0.035057,-0.173711,0.09,-1.90,0.149819,-1.731483,4.291290,-5.557468,0.149819,-1.731483,0.035057,-0.173711,0.015702,0.306030
46.419000,-0.343500,0.038300,0.04,-0.24,0.041498,-0.236925,0.12,-2.09,0.208985,-1.999917,-0.916121,-8.806213,0.208985,-1.999917,0.041498,-0.236925,0.028928,0.482504
46.452000,-0.341900,0.029400,0.05,-0.31,0.046991,-0.309983,0.13,-2.33,0.100650,-2.290729,-4.154973,-7.694510,0.100650,-2.290729,0.046991,-0.309983,0.049149,0.714818
46.486000,-0.340000,0.018000,0.05,-0.39,0.048122,-0.391560,0.08,-2.50,-0.021683,-2.478853,-0.845182,-2.432087,-0.021683,-2.478853,0.048122,-0.391560,0.077817,0.969576
46.519000,-0.338400,0.003500,0.05,-0.48,0.048287,-0.475625,0.03,-2.46,0.044399,-2.418104,1.922934,6.793135,0.044399,-2.418104,0.048287,-0.475625,0.114275,1.152254
46.552000,-0.336800,-0.014400,0.05,-0.56,0.050504,-0.551802,0.06,-2.14,0.089090,-2.012815,1.716789,16.575525,0.089090,-2.012815,0.050504,-0.551802,0.153518,1.115175
46.586000,-0.335000,-0.034800,0.05,-0.63,0.054823,-0.609146,0.18,-1.50,0.174834,-1.329605,4.211003,21.757674,0.174834,-1.329605,0.054823,-0.609146,0.187032,0.819509
46.619000,-0.333200,-0.057000,0.06,-0.67,0.063837,-0.641571,0.32,-0.65,0.355166,-0.560674,5.228416,26.371990,0.355166,-0.560674,0.063837,-0.641571,0.207845,0.382385
46.652000,-0.331200,-0.080600,0.08,-0.67,0.078314,-0.644360,0.36,0.14,0.461988,0.363779,-2.031146,20.318917,0.461988,0.363779,0.078314,-0.644360,0.210666,-0.198224
46.686000,-0.328300,-0.103300,0.09,-0.65,0.090318,-0.624412,0.22,0.67,0.202273,0.732515,-11.552406,2.958305,0.202273,0.732515,0.090318,-0.624412,0.199024,-0.439122
46.719000,-0.324600,-0.124100,0.10,-0.62,0.089666,-0.600351,-0.09,0.86,-0.241318,0.646480,-11.592916,-2.852178,-0.241318,0.646480,0.089666,-0.600351,0.184231,-0.409752
46.752000,-0.321100,-0.144200,0.09,-0.59,0.076280,-0.579127,-0.38,0.74,-0.507517,0.592674,-3.168480,-2.155543,-0.507517,0.592674,0.076280,-0.579127,0.170603,-0.381947
46.786000,-0.318600,-0.163700,0.06,-0.57,0.059275,-0.560836,-0.47,0.42,-0.451603,0.448019,5.543618,-10.640662,-0.451603,0.448019,0.059275,-0.560836,0.159025,-0.278034
46.819000,-0.317000,-0.181900,0.05,-0.56,0.048164,-0.554414,-0.32,0.06,-0.191091,-0.080059,7.180577,-14.005962,-0.191091,-0.080059,0.048164,-0.554414,0.154847,0.035182
46.853000,-0.315800,-0.200100,0.04,-0.57,0.044949,-0.563122,-0.10,-0.21,-0.010999,-0.379610,4.346936,-1.457489,-0.010999,-0.379610,0.044949,-0.563122,0.159563,0.213272
46.886000,-0.314600,-0.219400,0.04,-0.58,0.046565,-0.573715,0.02,-0.28,0.081659,-0.202765,-1.259086,6.751749,0.081659,-0.202765,0.046565,-0.573715,0.165659,0.120132
46.919000,-0.312900,-0.239200,0.05,-0.59,0.047033,-0.577095,0.02,-0.10,-0.060311,0.009868,-3.036736,6.712996,-0.060311,0.009868,0.047033,-0.577095,0.167626,-0.008531
46.953000,-0.311100,-0.259100,0.05,-0.59,0.044562,-0.572888,0.04,0.17,-0.057717,0.233373,3.789508,6.166541,-0.057717,0.233373,0.044562,-0.572888,0.165093,-0.136269
46.986000,-0.309700,-0.278800,0.05,-0.58,0.046271,-0.561803,0.15,0.35,0.173764,0.399777,7.864284,2.570635,0.173764,0.399777,0.046271,-0.561803,0.158882,-0.216556
47.019000,-0.308500,-0.297800,0.05,-0.56,0.056356,-0.547898,0.26,0.39,0.392996,0.390271,2.419349,-3.579339,0.392996,0.390271,0.056356,-0.547898,0.151684,-0.191681
47.052000,-0.306600,-0.316100,0.07,-0.55,0.068820,-0.537810,0.23,0.30,0.289097,0.194151,-9.470249,-4.673596,0.289097,0.194151,0.068820,-0.537810,0.146988,-0.084520
47.086000,-0.303700,-0.334100,0.08,-0.54,0.071026,-0.532994,-0.00,0.12,-0.169863,0.087792,-11.193214,-5.562934,-0.169863,0.087792,0.071026,-0.532994,0.144564,-0.058857
47.119000,-0.300800,-0.351900,0.07,-0.54,0.060930,-0.534227,-0.29,-0.02,-0.397035,-0.139236,-4.716046,-1.494066,-0.397035,-0.139236,0.060930,-0.534227,0.144556,0.050192
47.153000,-0.298700,-0.370000,0.05,-0.55,0.045359,-0.536939,-0.48,0.00,-0.493368,0.015455,0.475789,6.085605,-0.493368,0.015455,0.045359,-0.536939,0.145180,-0.030677
47.186000,-0.297600,-0.388300,0.03,-0.55,0.030051,-0.532858,-0.52,0.23,-0.398304,0.246094,1.254499,11.048349,-0.398304,0.246094,0.030051,-0.532858,0.142420,-0.143103
47.219000,-0.296700,-0.406900,0.02,-0.53,0.016204,-0.516698,-0.42,0.51,-0.406926,0.685172,2.037567,7.573160,-0.406926,0.685172,0.016204,-0.516698,0.133620,-0.360621
47.253000,-0.296300,-0.424600,0.00,-0.51,0.005054,-0.492450,-0.20,0.62,-0.219509,0.682652,9.506629,-6.172401,-0.219509,0.682652,0.005054,-0.492450,0.121267,-0.337282
47.286000,-0.296800,-0.440700,-0.00,-0.48,0.004360,-0.474687,0.05,0.49,0.176736,0.342109,9.397827,-11.162751,0.176736,0.342109,0.004360,-0.474687,0.112673,-0.161624
47.319000,-0.297100,-0.456000,0.01,-0.47,0.013906,-0.468624,0.25,0.33,0.346101,0.065065,-0.029595,0.079123,0.346101,0.065065,0.013906,-0.468624,0.109901,-0.025678
47.353000,-0.296300,-0.471800,0.02,-0.47,0.023796,-0.462161,0.33,0.42,0.219300,0.383847,-3.262141,14.531469,0.219300,0.383847,0.023796,-0.462161,0.107080,-0.172181
47.386000,-0.295200,-0.487800,0.03,-0.46,0.030426,-0.439485,0.29,0.89,0.184343,0.984325,1.995648,20.297996,0.184343,0.984325,0.030426,-0.439485,0.097037,-0.426988
47.419000,-0.294300,-0.503000,0.04,-0.42,0.038776,-0.393820,0.18,1.62,0.285940,1.708228,-2.543330,21.229550,0.285940,1.708228,0.038776,-0.393820,0.078299,-0.661647
47.453000,-0.292800,-0.516300,0.05,-0.35,0.043927,-0.324015,-0.02,2.38,-0.018938,2.380708,-11.805525,18.158452,-0.018938,2.380708,0.043927,-0.324015,0.053458,-0.772217
47.486000,-0.290800,-0.526800,0.04,-0.25,0.036292,-0.233610,-0.27,2.94,-0.415659,2.896983,-8.699146,10.699106,-0.415659,2.896983,0.036292,-0.233610,0.027945,-0.691849
47.520000,-0.289200,-0.533700,0.03,-0.14,0.019252,-0.131091,-0.42,3.19,-0.533794,3.078289,3.049242,-0.437965,-0.533794,3.078289,0.019252,-0.131091,0.008778,-0.413813
47.553000,-0.288900,-0.536500,0.01,-0.03,0.005458,-0.028798,-0.33,3.13,-0.241143,2.900194,11.408661,-8.360880,-0.241143,2.900194,0.005458,-0.028798,0.000430,-0.084837
47.586000,-0.289500,-0.535400,-0.00,0.07,0.003832,0.064528,-0.11,2.88,0.121949,2.591954,5.908022,-7.562122,0.121949,2.591954,0.003832,0.064528,0.002089,0.167722
47.619000,-0.289600,-0.531300,0.00,0.16,0.008534,0.149664,0.01,2.68,0.101482,2.450825,-6.336866,0.685521,0.101482,2.450825,0.008534,0.149664,0.011236,0.367667
47.653000,-0.289000,-0.524800,0.01,0.24,0.006514,0.235331,-0.11,2.64,-0.237896,2.607812,-9.029426,4.684519,-0.237896,2.607812,0.006514,0.235331,0.027712,0.612150
47.686000,-0.288600,-0.515500,0.00,0.33,-0.005499,0.325931,-0.39,2.72,-0.460067,2.712580,-7.278550,2.909221,-0.460067,2.712580,-0.005499,0.325931,0.053130,0.886642
47.719000,-0.288700,-0.503000,-0.02,0.42,-0.025566,0.419483,-0.61,2.76,-0.690626,2.757407,-2.081928,-3.504883,-0.690626,2.757407,-0.025566,0.419483,0.088310,1.174342
47.753000,-0.289700,-0.487100,-0.05,0.52,-0.047661,0.508794,-0.56,2.56,-0.557026,2.451937,8.670007,-12.184561,-0.557026,2.451937,-0.047661,0.508794,0.130572,1.274081
47.786000,-0.291800,-0.468100,-0.07,0.60,-0.059958,0.584166,-0.20,2.06,-0.127444,1.945935,17.476753,-19.682721,-0.127444,1.945935,-0.059958,0.584166,0.172422,1.144389
47.820000,-0.294800,-0.446200,-0.06,0.66,-0.053026,0.637389,0.28,1.41,0.516689,1.184728,14.057824,-20.364813,0.516689,1.184728,-0.053026,0.637389,0.204538,0.727734
47.853000,-0.297100,-0.422800,-0.04,0.70,-0.030759,0.667931,0.59,0.86,0.720872,0.662348,-2.006009,-8.900825,0.720872,0.662348,-0.030759,0.667931,0.223539,0.420229
47.886000,-0.297700,-0.399300,-0.01,0.71,-0.010451,0.688060,0.55,0.54,0.422523,0.564959,-12.779935,-0.266116,0.422523,0.564959,-0.010451,0.688060,0.236768,0.384309
47.920000,-0.297300,-0.375600,0.00,0.73,-0.003886,0.707371,0.22,0.48,-0.026899,0.584213,-9.355056,1.016447,-0.026899,0.584213,-0.003886,0.707371,0.250194,0.413360
47.953000,-0.297000,-0.351100,-0.00,0.74,-0.007782,0.727752,-0.11,0.59,-0.171952,0.621652,-3.000092,1.768230,-0.171952,0.621652,-0.007782,0.727752,0.264841,0.453746
47.986000,-0.297100,-0.326000,-0.01,0.76,-0.015180,0.750257,-0.23,0.74,-0.234987,0.714001,2.605304,5.128608,-0.234987,0.714001,-0.015180,0.750257,0.281558,0.539252
48.020000,-0.297900,-0.300500,-0.02,0.79,-0.019840,0.778279,-0.15,0.84,-0.026974,0.921859,5.128754,1.891552,-0.026974,0.921859,-0.019840,0.778279,0.303056,0.717999
48.053000,-0.298800,-0.273600,-0.02,0.82,-0.018990,0.808473,-0.00,0.91,0.064471,0.840934,1.978083,-3.441463,0.064471,0.840934,-0.018990,0.808473,0.326995,0.678649
48.086000,-0.299500,-0.245300,-0.02,0.85,-0.015908,0.835823,0.08,1.07,0.101165,0.821240,-1.041764,8.328594,0.101165,0.821240,-0.015908,0.835823,0.349427,0.684802
48.120000,-0.300000,-0.216500,-0.01,0.89,-0.013986,0.873028,0.03,1.49,-0.001229,1.434036,-3.660352,24.773067,-0.001229,1.434036,-0.013986,0.873028,0.381187,1.251971
48.153000,-0.300400,-0.187000,-0.01,0.94,-0.016134,0.937300,-0.10,2.09,-0.128721,2.321045,-4.759108,22.213717,-0.128721,2.321045,-0.016134,0.937300,0.439396,2.177593
48.186000,-0.300700,-0.155200,-0.02,1.03,-0.023443,1.024924,-0.21,2.33,-0.284778,2.670733,-1.456249,-9.766739,-0.284778,2.670733,-0.023443,1.024924,0.525509,2.743975
48.220000,-0.301500,-0.119000,-0.03,1.12,-0.032250,1.100199,-0.20,1.51,-0.205883,1.532415,4.900738,-56.814760,-0.205883,1.532415,-0.032250,1.100199,0.605739,1.692601
48.253000,-0.303000,-0.078700,-0.04,1.17,-0.035794,1.111581,-0.10,-0.50,0.001124,-0.982722,5.609616,-81.170361,0.001124,-0.982722,-0.035794,1.111581,0.618447,-1.092415
48.286000,-0.304500,-0.037900,-0.04,1.11,-0.033277,1.032151,0.03,-3.06,0.125668,-3.631712,0.108551,-68.476352,0.125668,-3.631712,-0.033277,1.032151,0.533222,-3.752658
48.320000,-0.305500,-0.001500,-0.03,0.95,-0.030384,0.875630,0.10,-5.15,0.037952,-5.395899,-0.902169,-31.089772,0.037952,-5.395899,-0.030384,0.875630,0.383826,-4.725965
48.353000,-0.306500,0.026800,-0.03,0.73,-0.028339,0.683037,0.11,-6.14,0.087343,-5.761378,1.139865,2.805707,0.087343,-5.761378,-0.028339,0.683037,0.233671,-3.937710
48.386000,-0.307500,0.046800,-0.03,0.51,-0.025228,0.492172,0.08,-6.04,0.085761,-5.383431,-1.285525,15.163101,0.085761,-5.383431,-0.025228,0.492172,0.121435,-2.651736
48.420000,-0.308300,0.059900,-0.02,0.32,-0.023593,0.318172,0.00,-5.29,0.001217,-4.808256,-3.734671,21.228739,0.001217,-4.808256,-0.023593,0.318172,0.050895,-1.529882
48.453000,-0.308900,0.067200,-0.02,0.16,-0.025947,0.168677,-0.07,-4.24,-0.129679,-3.944145,-1.631784,28.380677,-0.129679,-3.944145,-0.025947,0.168677,0.014563,-0.661920
48.486000,-0.309700,0.069600,-0.03,0.03,-0.029989,0.052016,-0.07,-3.03,-0.086289,-2.875256,3.505058,37.580350,-0.086289,-2.875256,-0.029989,0.052016,0.001802,-0.146971
48.520000,-0.310900,0.068100,-0.03,-0.05,-0.030279,-0.021796,0.01,-1.71,0.073338,-1.458558,4.393646,39.934579,0.073338,-1.458558,-0.030279,-0.021796,0.000696,0.029571
48.553000,-0.312200,0.064800,-0.03,-0.08,-0.025853,-0.050396,0.10,-0.45,0.169650,-0.271755,0.362349,30.358008,0.169650,-0.271755,-0.025853,-0.050396,0.001604,0.009309
48.587000,-0.313000,0.061400,-0.02,-0.07,-0.020997,-0.044426,0.12,0.47,0.099370,0.544227,-3.659807,15.054786,0.099370,0.544227,-0.020997,-0.044426,0.001207,-0.026264
48.620000,-0.313400,0.059300,-0.02,-0.04,-0.019941,-0.021032,0.08,0.86,-0.028452,0.754274,-1.185644,-0.594068,-0.028452,0.754274,-0.019941,-0.021032,0.000420,-0.015297
48.653000,-0.314100,0.059000,-0.02,-0.00,-0.020181,0.002448,0.03,0.84,0.027439,0.594877,2.319757,-5.805753,0.027439,0.594877,-0.020181,0.002448,0.000207,0.000903
48.687000,-0.314900,0.059800,-0.02,0.02,-0.018125,0.019819,0.01,0.64,0.083933,0.430308,-0.500054,-3.080851,0.083933,0.430308,-0.018125,0.019819,0.000361,0.007007
48.720000,-0.315400,0.060700,-0.02,0.04,-0.016597,0.033409,0.01,0.36,-0.000661,0.359494,-2.134975,-4.131382,-0.000661,0.359494,-0.016597,0.033409,0.000696,0.012021
48.753000,-0.315900,0.062000,-0.02,0.05,-0.017307,0.041755,-0.01,0.02,-0.034180,0.094388,-0.227149,-13.976396,-0.034180,0.094388,-0.017307,0.041755,0.001022,0.004533
48.787000,-0.316500,0.064200,-0.02,0.04,-0.018314,0.034750,-0.02,-0.33,-0.020224,-0.496248,0.772437,-12.983022,-0.020224,-0.496248,-0.018314,0.034750,0.000771,-0.016874
48.820000,-0.317100,0.065900,-0.02,0.02,-0.018518,0.013854,-0.01,-0.51,0.007753,-0.656894,0.620938,4.623732,0.007753,-0.656894,-0.018518,0.013854,0.000267,-0.009244
48.853000,-0.317800,0.065900,-0.02,-0.00,-0.018067,-0.002194,-0.00,-0.38,0.014742,-0.240249,0.020206,15.091536,0.014742,-0.240249,-0.018067,-0.002194,0.000166,0.000261
48.887000,-0.318500,0.064900,-0.02,-0.01,-0.017699,-0.002142,-0.04,-0.08,-0.003460,0.210914,-2.702441,6.943267,-0.003460,0.210914,-0.017699,-0.002142,0.000159,-0.000390
48.920000,-0.318900,0.064500,-0.02,-0.00,-0.020217,0.005527,-0.08,0.11,-0.141093,0.183740,-2.196225,-6.186580,-0.141093,0.183740,-0.020217,0.005527,0.000220,0.003868
48.953000,-0.319500,0.065100,-0.02,0.01,-0.024988,0.006855,-0.08,0.06,-0.119008,-0.114443,2.628922,-7.771725,-0.119008,-0.114443,-0.024988,0.006855,0.000336,0.002189
48.987000,-0.320600,0.065700,-0.03,0.00,-0.026897,0.000021,-0.02,-0.07,0.016723,-0.247966,4.895629,1.543027,0.016723,-0.247966,-0.026897,0.000021,0.000362,-0.000455
49.020000,-0.321700,0.065500,-0.03,-0.00,-0.023517,-0.005104,0.09,-0.05,0.170380,-0.018350,1.837154,9.138965,0.170380,-0.018350,-0.023517,-0.005104,0.000290,-0.003913
49.053000,-0.322400,0.065000,-0.02,-0.00,-0.018002,-0.000275,0.17,0.18,0.142920,0.301635,-0.362027,8.141008,0.142920,0.301635,-0.018002,-0.000275,0.000162,-0.002656
49.087000,-0.323100,0.064800,-0.01,0.01,-0.012802,0.013687,0.16,0.45,0.157945,0.502568,-0.920269,5.053226,0.157945,0.502568,-0.012802,0.013687,0.000176,0.004857
49.120000,-0.323400,0.065200,-0.01,0.03,-0.008688,0.033240,0.10,0.57,0.077778,0.615820,-3.235037,-1.564361,0.077778,0.615820,-0.008688,0.033240,0.000590,0.019794
49.153000,-0.323300,0.066700,-0.01,0.05,-0.007871,0.051122,0.09,0.50,-0.009973,0.412273,1.692702,-6.733300,-0.009973,0.412273,-0.007871,0.051122,0.001338,0.021155
49.187000,-0.323700,0.069000,-0.01,0.07,-0.005211,0.061732,0.13,0.33,0.179505,0.218206,5.838592,-4.722298,0.179505,0.218206,-0.005211,0.061732,0.001919,0.012535
49.220000,-0.324200,0.071500,0.00,0.07,0.003375,0.067052,0.15,0.18,0.290174,0.111087,-2.879224,-0.425109,0.290174,0.111087,0.003375,0.067052,0.002254,0.008428
49.254000,-0.323800,0.073800,0.01,0.08,0.008763,0.071505,0.05,0.06,-0.001017,0.144992,-9.630848,-1.652986,-0.001017,0.144992,0.008763,0.071505,0.002595,0.010359
49.287000,-0.323000,0.076300,0.01,0.08,0.003861,0.073746,-0.11,-0.08,-0.265388,-0.036617,-4.258243,-7.502109,-0.265388,-0.036617,0.003861,0.073746,0.002727,-0.003725
49.320000,-0.322800,0.079100,-0.00,0.07,-0.005698,0.067673,-0.22,-0.27,-0.259462,-0.323152,4.522878,-8.257564,-0.259462,-0.323152,-0.005698,0.067673,0.002306,-0.020390
49.353000,-0.323300,0.081700,-0.01,0.06,-0.010600,0.052532,-0.16,-0.45,-0.024999,-0.541747,4.496579,-2.149562,-0.024999,-0.541747,-0.010600,0.052532,0.001436,-0.028194
49.387000,-0.323900,0.083300,-0.01,0.04,-0.010600,0.034781,-0.04,-0.55,0.011461,-0.484163,1.609254,2.293907,0.011461,-0.484163,-0.010600,0.034781,0.000661,-0.016961
49.420000,-0.324400,0.084000,-0.01,0.02,-0.008844,0.019087,0.01,-0.59,0.072234,-0.455731,-2.692755,-1.725128,0.072234,-0.455731,-0.008844,0.019087,0.000221,-0.009337
49.453000,-0.324500,0.084400,-0.01,0.00,-0.009981,0.001216,-0.05,-0.69,-0.145845,-0.622816,-3.890978,-8.757144,-0.145845,-0.622816,-0.009981,0.001216,0.000051,0.000698
49.487000,-0.324800,0.084500,-0.01,-0.02,-0.015392,-0.026110,-0.16,-0.86,-0.166055,-0.972722,-2.157401,-6.358535,-0.166055,-0.972722,-0.015392,-0.026110,0.000459,0.027953
49.520000,-0.325300,0.083400,-0.02,-0.06,-0.023306,-0.060235,-0.26,-0.95,-0.293477,-0.990404,-1.432108,2.728278,-0.293477,-0.990404,-0.023306,-0.060235,0.002086,0.066497
49.554000,-0.326200,0.080800,-0.03,-0.09,-0.032757,-0.091147,-0.28,-0.80,-0.249599,-0.780138,1.044923,12.169314,-0.249599,-0.780138,-0.032757,-0.091147,0.004690,0.079284
49.587000,-0.327400,0.076800,-0.04,-0.12,-0.040961,-0.108319,-0.20,-0.34,-0.217868,-0.201376,4.016903,17.907571,-0.217868,-0.201376,-0.040961,-0.108319,0.006705,0.030737
49.620000,-0.329100,0.072300,-0.05,-0.12,-0.044598,-0.105385,-0.04,0.26,0.014601,0.367460,6.674257,16.143997,0.014601,0.367460,-0.044598,-0.105385,0.006547,-0.039376
49.654000,-0.330900,0.068100,-0.05,-0.10,-0.040894,-0.084147,0.13,0.79,0.191997,0.854286,3.955091,11.028830,0.191997,0.854286,-0.040894,-0.084147,0.004376,-0.079737
49.687000,-0.332400,0.065200,-0.04,-0.06,-0.032713,-0.050420,0.25,1.10,0.272322,1.086698,0.552428,2.408579,0.272322,1.086698,-0.032713,-0.050420,0.001806,-0.063700
49.720000,-0.333400,0.064000,-0.03,-0.02,-0.023828,-0.013768,0.27,1.15,0.237181,1.034762,-2.058045,-3.538046,0.237181,1.034762,-0.023828,-0.013768,0.000379,-0.019898
49.754000,-0.334000,0.064100,-0.02,0.02,-0.017144,0.018877,0.21,0.93,0.153400,0.855787,-2.318156,-8.298106,0.153400,0.855787,-0.017144,0.018877,0.000325,0.013525
49.787000,-0.334400,0.065500,-0.01,0.05,-0.013038,0.041824,0.13,0.50,0.091529,0.458065,-1.524451,-16.443229,0.091529,0.458065,-0.013038,0.041824,0.000960,0.017965
49.820000,-0.334700,0.067900,-0.01,0.06,-0.010668,0.046350,0.07,-0.04,0.052836,-0.193126,-0.534423,-16.685891,0.052836,-0.193126,-0.010668,0.046350,0.001131,-0.009515
49.854000,-0.335000,0.070100,-0.01,0.05,-0.008935,0.032179,0.05,-0.53,0.052896,-0.607035,0.398933,-10.026999,0.052896,-0.607035,-0.008935,0.032179,0.000558,-0.020007
49.887000,-0.335300,0.071400,-0.01,0.02,-0.006862,0.006716,0.03,-0.80,0.065680,-0.839819,-0.393621,-0.264703,0.065680,-0.839819,-0.006862,0.006716,0.000046,-0.006091
49.920000,-0.335500,0.071300,-0.01,-0.02,-0.005288,-0.019049,0.01,-0.72,0.020964,-0.624408,-1.854312,9.892950,0.020964,-0.624408,-0.005288,-0.019049,0.000195,0.011783
49.954000,-0.335600,0.070000,-0.01,-0.04,-0.005742,-0.033796,-0.03,-0.34,-0.046834,-0.216404,-1.752802,15.280161,-0.046834,-0.216404,-0.005742,-0.033796,0.000588,0.007582
49.987000,-0.335700,0.068000,-0.01,-0.04,-0.008088,-0.031561,-0.06,0.15,-0.082407,0.334442,-0.018124,12.676419,-0.082407,0.334442,-0.008088,-0.031561,0.000531,-0.009889
50.021000,-0.336000,0.066500,-0.01,-0.03,-0.010393,-0.015264,-0.03,0.50,-0.040763,0.575949,2.832178,2.274177,-0.040763,0.575949,-0.010393,-0.015264,0.000170,-0.008367
50.054000,-0.336500,0.066100,-0.01,-0.00,-0.009616,0.003797,0.04,0.57,0.087603,0.504961,2.960274,-5.300062,0.087603,0.504961,-0.009616,0.003797,0.000053,0.001075
50.087000,-0.336900,0.066700,-0.01,0.02,-0.005582,0.017043,0.12,0.37,0.141169,0.252239,1.177431,-9.250243,0.141169,0.252239,-0.005582,0.017043,0.000161,0.003511
50.120000,-0.337100,0.067800,-0.00,0.03,-0.000245,0.019936,0.15,0.02,0.160678,-0.084056,-1.271591,-9.156766,0.160678,-0.084056,-0.000245,0.019936,0.000199,-0.001715
50.154000,-0.337000,0.068800,0.00,0.02,0.003686,0.012413,0.09,-0.33,0.062322,-0.350430,-3.037014,-7.891347,0.062322,-0.350430,0.003686,0.012413,0.000084,-0.004120
50.187000,-0.336700,0.069400,0.01,0.00,0.004291,-0.004004,0.01,-0.56,-0.024108,-0.593848,-2.520292,-4.431521,-0.024108,-0.593848,0.004291,-0.004004,0.000017,0.002274
50.221000,-0.336400,0.069200,0.00,-0.02,0.002146,-0.025192,-0.05,-0.60,-0.089748,-0.610330,0.239906,3.617791,-0.089748,-0.610330,0.002146,-0.025192,0.000320,0.015183
50.254000,-0.336400,0.068000,0.00,-0.04,0.000215,-0.042080,-0.05,-0.36,-0.015372,-0.334059,1.952183,13.751854,-0.015372,-0.334059,0.000215,-0.042080,0.000885,0.014054
50.287000,-0.336500,0.065900,-0.00,-0.05,0.000394,-0.043524,0.01,0.14,0.025733,0.271523,1.690489,18.955647,0.025733,0.271523,0.000394,-0.043524,0.000947,-0.011808
50.321000,-0.336500,0.063700,0.00,-0.04,0.002471,-0.023990,0.07,0.68,0.093038,0.845018,0.925146,12.819033,0.093038,0.845018,0.002471,-0.023990,0.000291,-0.020042
50.354000,-0.336400,0.062600,0.01,-0.00,0.005624,0.009581,0.11,0.94,0.089480,1.051142,0.435939,-3.132115,0.089480,1.051142,0.005624,0.009581,0.000062,0.010574
50.387000,-0.336300,0.063500,0.01,0.04,0.009274,0.039551,0.10,0.73,0.121731,0.634414,-0.356214,-18.845687,0.121731,0.634414,0.009274,0.039551,0.000825,0.026221
50.421000,-0.335800,0.065900,0.01,0.06,0.012573,0.048548,0.10,0.08,0.072447,-0.134780,-0.887808,-23.964124,0.072447,-0.134780,0.012573,0.048548,0.001258,-0.005632
50.454000,-0.335200,0.068500,0.01,0.05,0.015120,0.030615,0.15,-0.74,0.093637,-0.904329,3.927102,-20.121348,0.093637,-0.904329,0.015120,0.030615,0.000583,-0.026270
50.487000,-0.334900,0.070000,0.02,0.01,0.021731,-0.010213,0.19,-1.43,0.283592,-1.459949,1.831690,-12.171091,0.283592,-1.459949,0.021731,-0.010213,0.000288,0.021073
50.521000,-0.334200,0.069400,0.03,-0.05,0.029998,-0.065268,0.12,-1.87,0.163794,-1.750496,-7.362085,-6.124152,0.163794,-1.750496,0.029998,-0.065268,0.002580,0.119165
50.554000,-0.332800,0.066400,0.03,-0.12,0.030190,-0.127981,-0.08,-2.16,-0.165728,-1.944388,-10.462746,-7.925725,-0.165728,-1.944388,0.030190,-0.127981,0.008645,0.243840
50.587000,-0.331300,0.061200,0.03,-0.20,0.019018,-0.200141,-0.31,-2.48,-0.461683,-2.323090,-3.712884,-13.737857,-0.461683,-2.323090,0.019018,-0.200141,0.020209,0.456165
50.621000,-0.330700,0.053600,0.01,-0.28,0.003708,-0.287775,-0.41,-2.87,-0.400128,-2.830623,4.687144,-14.158718,-0.400128,-2.830623,0.003708,-0.287775,0.041414,0.813099
50.654000,-0.331000,0.042900,-0.01,-0.39,-0.006629,-0.391123,-0.31,-3.21,-0.195298,-3.209010,6.417041,-6.875666,-0.195298,-3.209010,-0.006629,-0.391123,0.076511,1.256413
50.687000,-0.331600,0.028200,-0.01,-0.51,-0.009801,-0.501875,-0.08,-3.28,0.006491,-3.234114,5.720109,7.519441,0.006491,-3.234114,-0.009801,-0.501875,0.125987,1.623058
50.721000,-0.332100,0.009100,-0.01,-0.62,-0.006496,-0.604062,0.15,-2.92,0.177586,-2.712647,3.719038,20.090419,0.177586,-2.712647,-0.006496,-0.604062,0.182466,1.637453
50.754000,-0.332500,-0.013700,-0.00,-0.71,0.001042,-0.683628,0.26,-2.18,0.251748,-1.939080,1.626197,25.326845,0.251748,-1.939080,0.001042,-0.683628,0.233674,1.325872
50.787000,-0.332500,-0.039200,0.01,-0.77,0.010243,-0.734591,0.23,-1.31,0.262588,-1.069646,-4.727724,22.623143,0.262588,-1.069646,0.010243,-0.734591,0.269864,0.788441
50.821000,-0.331700,-0.065900,0.02,-0.79,0.014381,-0.759777,0.11,-0.55,-0.022409,-0.444986,-5.393439,15.147425,-0.022409,-0.444986,0.014381,-0.759777,0.288734,0.337767
50.854000,-0.331000,-0.092600,0.02,-0.80,0.012723,-0.767198,-0.00,0.05,-0.052483,-0.009743,0.327353,12.443748,-0.052483,-0.009743,0.012723,-0.767198,0.294378,0.006807
50.888000,-0.330600,-0.119100,0.01,-0.79,0.011217,-0.760174,-0.05,0.48,-0.026899,0.408401,1.858940,11.701283,-0.026899,0.408401,0.011217,-0.760174,0.288995,-0.310757
50.921000,-0.330300,-0.145500,0.01,-0.76,0.011670,-0.740265,-0.01,0.64,0.051649,0.710426,1.053455,2.274986,0.051649,0.710426,0.011670,-0.740265,0.274064,-0.525301
50.954000,-0.329900,-0.170700,0.01,-0.74,0.013332,-0.718292,0.05,0.45,0.043773,0.496448,0.644416,-17.653745,0.043773,0.496448,0.013332,-0.718292,0.258061,-0.356011
50.988000,-0.329500,-0.194000,0.02,-0.72,0.015727,-0.715438,0.08,-0.02,0.093999,-0.338310,0.017950,-20.585041,0.093999,-0.338310,0.015727,-0.715438,0.256049,0.243518
51.021000,-0.328900,-0.217400,0.02,-0.74,0.018160,-0.734625,0.08,-0.40,0.046991,-0.696923,-0.472668,0.729624,0.046991,-0.696923,0.018160,-0.734625,0.270002,0.512831
51.054000,-0.328200,-0.242600,0.02,-0.76,0.020109,-0.753074,0.07,-0.35,0.069154,-0.301095,0.189242,19.642202,0.069154,-0.301095,0.020109,-0.753074,0.283763,0.228138
51.088000,-0.327500,-0.269200,0.02,-0.77,0.022187,-0.750278,0.05,0.14,0.049394,0.466834,-0.312266,19.031966,0.049394,0.466834,0.022187,-0.750278,0.281705,-0.349159
51.121000,-0.326800,-0.295400,0.02,-0.75,0.023757,-0.726621,-0.01,0.65,0.030571,0.859034,-3.677893,4.113447,0.030571,0.859034,0.023757,-0.726621,0.264271,-0.623466
51.154000,-0.325800,-0.320000,0.02,-0.72,0.021383,-0.698070,-0.09,0.82,-0.164489,0.762837,-2.891263,-8.121704,-0.164489,0.762837,0.021383,-0.698070,0.243879,-0.536031
51.188000,-0.324900,-0.342900,0.02,-0.69,0.016061,-0.677971,-0.08,0.67,-0.119638,0.416890,3.728653,-8.565882,-0.119638,0.416890,0.016061,-0.677971,0.229952,-0.284561
51.221000,-0.324500,-0.365200,0.01,-0.68,0.014860,-0.666840,0.05,0.52,0.066784,0.290335,8.355438,3.685423,0.066784,0.290335,0.014860,-0.666840,0.222448,-0.192615
51.254000,-0.324500,-0.387800,0.02,-0.66,0.022555,-0.651668,0.18,0.60,0.358838,0.641708,2.332049,12.331987,0.358838,0.641708,0.022555,-0.651668,0.212590,-0.410087
51.288000,-0.323700,-0.410100,0.03,-0.64,0.032666,-0.623101,0.19,0.89,0.192285,1.027601,-8.183811,9.560300,0.192285,1.027601,0.032666,-0.623101,0.194661,-0.634018
51.321000,-0.322100,-0.431200,0.04,-0.60,0.034122,-0.584030,0.04,1.14,-0.102783,1.227372,-7.123947,0.203348,-0.102783,1.227372,0.034122,-0.584030,0.171128,-0.720330
51.354000,-0.320600,-0.450500,0.03,-0.56,0.028002,-0.544612,-0.08,1.15,-0.214562,1.054654,2.537248,-8.390790,-0.214562,1.054654,0.028002,-0.544612,0.148693,-0.580385
51.388000,-0.319800,-0.468100,0.02,-0.52,0.024651,-0.513965,-0.01,1.00,0.050435,0.766007,9.995693,-5.074968,0.050435,0.766007,0.024651,-0.513965,0.132384,-0.392457
51.421000,-0.319300,-0.484600,0.03,-0.50,0.032060,-0.488317,0.23,1.02,0.371530,0.811662,6.965342,9.575963,0.371530,0.811662,0.032060,-0.488317,0.119741,-0.384437
51.454000,-0.318500,-0.500900,0.04,-0.47,0.046952,-0.451687,0.36,1.42,0.457198,1.406736,-2.897769,23.754610,0.457198,1.406736,0.046952,-0.451687,0.103113,-0.613938
51.488000,-0.316700,-0.516700,0.06,-0.41,0.058512,-0.388816,0.20,2.07,0.176568,2.283660,-13.421569,21.509790,0.176568,2.283660,0.058512,-0.388816,0.077301,-0.877592
51.521000,-0.313900,-0.529600,0.06,-0.32,0.055486,-0.301971,-0.13,2.69,-0.346122,2.764480,-11.412813,6.536960,-0.346122,2.764480,0.055486,-0.301971,0.047133,-0.853998
51.555000,-0.311600,-0.538400,0.05,-0.22,0.039996,-0.206798,-0.40,3.11,-0.513649,2.818961,0.578437,4.409430,-0.513649,2.818961,0.039996,-0.206798,0.022183,-0.603499
51.588000,-0.310600,-0.544100,0.03,-0.11,0.024778,-0.105955,-0.46,3.35,-0.353551,3.131650,5.880087,10.676339,-0.353551,3.131650,0.024778,-0.105955,0.005920,-0.340574
51.621000,-0.310200,-0.546400,0.01,0.00,0.015820,0.006657,-0.31,3.54,-0.176973,3.477591,3.726702,7.019773,-0.176973,3.477591,0.015820,0.006657,0.000147,0.020351
51.654000,-0.309800,-0.544400,0.01,0.12,0.011219,0.127200,-0.10,3.72,-0.094428,3.587363,4.145402,2.154268,-0.094428,3.587363,0.011219,0.127200,0.008153,0.455255
51.688000,-0.309700,-0.538200,0.01,0.25,0.011247,0.250169,0.04,3.75,0.085726,3.616458,3.114209,-2.181387,0.085726,3.616458,0.011247,0.250169,0.031356,0.905690
51.721000,-0.309600,-0.527700,0.01,0.38,0.014406,0.370207,-0.00,3.49,0.062227,3.390900,-5.521780,-13.467950,0.062227,3.390900,0.014406,0.370207,0.068630,1.256231
51.754000,-0.308900,-0.512700,0.01,0.49,0.011465,0.474965,-0.19,2.96,-0.256483,2.734598,-11.108399,-21.478228,-0.256483,2.734598,0.011465,0.474965,0.112861,1.295897
51.788000,-0.308000,-0.494000,0.00,0.58,-0.003327,0.555772,-0.38,2.31,-0.576638,2.033748,-3.142736,-18.015658,-0.576638,2.033748,-0.003327,0.555772,0.154447,1.132219
51.821000,-0.308200,-0.473000,-0.02,0.64,-0.021315,0.616316,-0.38,1.76,-0.418794,1.575674,11.406275,-6.847342,-0.418794,1.575674,-0.021315,0.616316,0.190150,0.980039
51.855000,-0.309600,-0.450800,-0.03,0.69,-0.027024,0.668469,-0.11,1.44,0.092409,1.512278,12.826473,-2.129619,0.092409,1.512278,-0.027024,0.668469,0.223790,1.008413
51.888000,-0.311100,-0.427200,-0.03,0.74,-0.018718,0.717235,0.21,1.20,0.357704,1.322040,4.409831,-10.666135,0.357704,1.322040,-0.018718,0.717235,0.257388,0.941518
51.921000,-0.311900,-0.401800,-0.01,0.78,-0.005499,0.753704,0.32,0.82,0.370578,0.790774,-6.191246,-18.405354,0.370578,0.790774,-0.005499,0.753704,0.284050,0.593971
51.955000,-0.311600,-0.374800,0.00,0.80,0.001111,0.769707,0.17,0.34,0.001234,0.165909,-9.625894,-16.241459,0.001234,0.165909,0.001111,0.769707,0.296225,0.127703
51.988000,-0.311100,-0.347600,0.00,0.79,-0.002692,0.767954,-0.07,0.01,-0.199950,-0.193782,-3.378269,1.116263,-0.199950,-0.193782,-0.002692,0.767954,0.294880,-0.148278
52.021000,-0.311100,-0.321600,-0.01,0.79,-0.010394,0.766939,-0.21,-0.01,-0.227756,0.176775,2.126096,10.465514,-0.227756,0.176775,-0.010394,0.766939,0.294151,0.137943
52.055000,-0.311700,-0.295900,-0.02,0.79,-0.016029,0.776771,-0.21,0.16,-0.101321,0.370820,2.282569,1.877291,-0.101321,0.370820,-0.016029,0.776771,0.301815,0.289666
52.088000,-0.312400,-0.269600,-0.02,0.80,-0.019314,0.788739,-0.16,0.25,-0.106509,0.300320,-1.120420,-6.635789,-0.106509,0.300320,-0.019314,0.788739,0.311241,0.238931
52.121000,-0.313100,-0.242200,-0.02,0.81,-0.023864,0.794048,-0.19,0.26,-0.174008,0.038568,-3.887742,-2.118224,-0.174008,0.038568,-0.023864,0.794048,0.315540,0.034777
52.155000,-0.313900,-0.214700,-0.03,0.81,-0.032687,0.797989,-0.30,0.48,-0.344715,0.283557,-3.803009,18.418110,-0.344715,0.283557,-0.032687,0.797989,0.318927,0.237543
52.188000,-0.315000,-0.188100,-0.04,0.83,-0.045700,0.822529,-0.40,1.07,-0.408445,1.209493,-2.129882,31.286683,-0.408445,1.209493,-0.045700,0.822529,0.339321,1.013509
52.221000,-0.316600,-0.161000,-0.06,0.88,-0.060777,0.880952,-0.36,1.74,-0.442712,2.142344,5.636889,13.902729,-0.442712,2.142344,-0.060777,0.880952,0.389885,1.914210
52.255000,-0.319100,-0.130700,-0.07,0.96,-0.069503,0.954093,-0.14,1.88,-0.044541,1.995587,11.397650,-19.607315,-0.044541,1.995587,-0.069503,0.954093,0.457562,1.907072
52.288000,-0.321900,-0.096700,-0.07,1.03,-0.065667,1.004942,0.18,1.04,0.260006,0.853054,9.199766,-46.906647,0.260006,0.853054,-0.065667,1.004942,0.507111,0.840196
52.321000,-0.324600,-0.060300,-0.06,1.05,-0.051654,1.002772,0.40,-0.70,0.527308,-1.052283,1.842734,-61.281993,0.527308,-1.052283,-0.051654,1.002772,0.504110,-1.082438
52.355000,-0.326200,-0.024200,-0.04,0.99,-0.035648,0.931637,0.41,-2.74,0.369108,-3.093326,-8.601693,-53.598219,0.369108,-3.093326,-0.035648,0.931637,0.434609,-2.895015
52.388000,-0.326800,0.008300,-0.03,0.86,-0.028766,0.800098,0.23,-4.38,0.038868,-4.513984,-7.222141,-27.097547,0.038868,-4.513984,-0.028766,0.800098,0.320492,-3.612746
52.421000,-0.327400,0.034500,-0.03,0.68,-0.029731,0.637438,0.05,-5.14,-0.062963,-4.911916,0.331010,1.498294,-0.062963,-4.911916,-0.029731,0.637438,0.203605,-3.129169
52.455000,-0.328400,0.053400,-0.03,0.49,-0.030501,0.475374,0.01,-5.07,0.039237,-4.545801,4.576086,15.239530,0.039237,-4.545801,-0.030501,0.475374,0.113455,-2.162150
52.488000,-0.329600,0.066200,-0.03,0.33,-0.026338,0.329627,0.12,-4.56,0.206301,-4.028468,4.422232,11.111521,0.206301,-4.028468,-0.026338,0.329627,0.054674,-1.333326
52.522000,-0.330600,0.074700,-0.02,0.19,-0.017316,0.196953,0.26,-3.92,0.310050,-3.763483,1.605731,11.335580,0.310050,-3.763483,-0.017316,0.196953,0.019545,-0.746597
52.555000,-0.331100,0.079000,-0.01,0.07,-0.006581,0.078368,0.29,-3.15,0.298717,-3.141700,-3.182784,26.798633,0.298717,-3.141700,-0.006581,0.078368,0.003092,-0.248174
52.588000,-0.331100,0.078900,0.00,-0.03,0.000633,-0.009424,0.18,-2.12,0.112274,-1.963051,-5.881439,40.120289,0.112274,-1.963051,0.000633,-0.009424,0.000045,0.018570
52.622000,-0.330800,0.075600,0.01,-0.08,0.001337,-0.052112,-0.02,-0.89,-0.067266,-0.563643,-5.698149,36.913891,-0.067266,-0.563643,0.001337,-0.052112,0.001359,0.029283
52.655000,-0.330400,0.071800,-0.00,-0.08,-0.004083,-0.053230,-0.13,0.22,-0.220776,0.417504,0.879367,19.835773,-0.220776,0.417504,-0.004083,-0.053230,0.001425,-0.021322
52.688000,-0.330600,0.069300,-0.01,-0.05,-0.008464,-0.031405,-0.04,0.88,-0.004755,0.786630,8.366844,4.740776,-0.004755,0.786630,-0.008464,-0.031405,0.000529,-0.024664
52.722000,-0.331300,0.068200,-0.01,-0.01,-0.003848,-0.003689,0.15,0.96,0.268784,0.788203,6.629576,-4.967871,0.268784,0.788203,-0.003848,-0.003689,0.000014,-0.003942
52.755000,-0.331700,0.068600,0.00,0.02,0.007915,0.018661,0.28,0.67,0.385220,0.493153,-2.218098,-11.593077,0.385220,0.493153,0.007915,0.018661,0.000205,0.012252
52.788000,-0.331100,0.070200,0.02,0.03,0.017426,0.028271,0.26,0.27,0.154656,0.077794,-6.526525,-9.968924,0.154656,0.077794,0.017426,0.028271,0.000551,0.004894
52.822000,-0.330100,0.071600,0.02,0.03,0.020032,0.026776,0.14,-0.06,0.016690,-0.135523,-1.775471,-2.480549,0.016690,-0.135523,0.020032,0.026776,0.000559,-0.003294
52.855000,-0.329300,0.072400,0.02,0.03,0.020622,0.022001,0.06,-0.25,0.038169,-0.139379,2.962796,-3.082019,0.038169,-0.139379,0.020622,0.022001,0.000455,-0.002279
52.888000,-0.328700,0.073400,0.02,0.02,0.024219,0.013889,0.08,-0.26,0.168938,-0.318549,1.470023,-0.238021,0.168938,-0.318549,0.024219,0.013889,0.000390,-0.000333
52.922000,-0.327900,0.073900,0.03,0.01,0.029369,0.005941,0.11,-0.08,0.121023,-0.103955,-1.328417,10.630848,0.121023,-0.103955,0.029369,0.005941,0.000449,0.002937
52.955000,-0.326800,0.073500,0.03,0.01,0.033033,0.009596,0.07,0.19,0.084371,0.323662,-3.686793,12.386270,0.084371,0.323662,0.033033,0.009596,0.000592,0.005893
52.988000,-0.325400,0.073300,0.03,0.02,0.032704,0.026527,-0.00,0.41,-0.097928,0.615722,-2.108003,-0.722298,-0.097928,0.615722,0.032704,0.026527,0.000887,0.013131
53.022000,-0.324300,0.074600,0.03,0.04,0.029992,0.042785,-0.08,0.39,-0.052721,0.293531,0.200324,-10.936373,-0.052721,0.293531,0.029992,0.042785,0.001365,0.010978
53.055000,-0.323300,0.076600,0.03,0.05,0.027279,0.047296,-0.13,0.13,-0.111613,-0.022670,-1.325053,-8.409799,-0.111613,-0.022670,0.027279,0.047296,0.001491,-0.004117
53.088000,-0.322400,0.078600,0.02,0.05,0.023066,0.042383,-0.17,-0.15,-0.139125,-0.243207,-2.042652,-3.754418,-0.139125,-0.243207,0.023066,0.042383,0.001164,-0.013517
53.122000,-0.321600,0.080200,0.02,0.04,0.016602,0.033206,-0.21,-0.26,-0.237628,-0.268986,-1.674402,1.948053,-0.237628,-0.268986,0.016602,0.033206,0.000689,-0.012877
53.155000,-0.321100,0.081100,0.01,0.03,0.008409,0.026038,-0.22,-0.21,-0.228594,-0.139431,1.659733,4.787480,-0.228594,-0.139431,0.008409,0.026038,0.000374,-0.005553
53.189000,-0.320900,0.081600,0.00,0.02,0.002126,0.023967,-0.13,-0.10,-0.125762,0.005220,4.609045,1.599639,-0.125762,0.005220,0.002126,0.023967,0.000289,-0.000142
53.222000,-0.321100,0.082400,-0.00,0.02,0.001061,0.023694,0.04,-0.04,0.071900,-0.036786,7.246455,-2.062812,0.071900,-0.036786,0.001061,0.023694,0.000281,-0.000795
53.255000,-0.321400,0.083300,0.00,0.02,0.007843,0.021342,0.19,-0.05,0.304604,-0.098975,2.187939,-0.395229,0.304604,-0.098975,0.007843,0.021342,0.000259,0.000277
53.288000,-0.321100,0.083900,0.01,0.02,0.017048,0.018372,0.23,-0.12,0.208127,-0.082700,-3.834175,-1.628803,0.208127,-0.082700,0.017048,0.018372,0.000314,0.002029
53.322000,-0.320300,0.084500,0.02,0.02,0.022082,0.013359,0.11,-0.25,0.074642,-0.228520,-6.370020,-5.319868,0.074642,-0.228520,0.022082,0.013359,0.000333,-0.001405
53.355000,-0.319200,0.085100,0.02,0.01,0.020084,0.002347,-0.08,-0.42,-0.185955,-0.426726,-4.987048,-6.829714,-0.185955,-0.426726,0.020084,0.002347,0.000204,-0.004736
53.388000,-0.318400,0.085200,0.02,-0.01,0.012542,-0.016336,-0.22,-0.63,-0.238420,-0.666686,-0.779727,-5.364285,-0.238420,-0.666686,0.012542,-0.016336,0.000212,0.007901
53.422000,-0.318000,0.084400,0.01,-0.04,0.004008,-0.041180,-0.26,-0.83,-0.249747,-0.786570,2.007186,-4.629609,-0.249747,-0.786570,0.004008,-0.041180,0.000856,0.031390
53.455000,-0.318100,0.082900,-0.00,-0.07,-0.002430,-0.071065,-0.21,-0.90,-0.128218,-0.945064,2.059774,-0.552531,-0.128218,-0.945064,-0.002430,-0.071065,0.002528,0.067472
53.489000,-0.318400,0.080100,-0.01,-0.10,-0.006681,-0.101060,-0.16,-0.73,-0.132679,-0.761981,-0.594309,11.857662,-0.132679,-0.761981,-0.006681,-0.101060,0.005129,0.077893
53.522000,-0.318700,0.075800,-0.01,-0.13,-0.011527,-0.117699,-0.16,-0.30,-0.157622,-0.179980,-2.194015,19.217030,-0.157622,-0.179980,-0.011527,-0.117699,0.006993,0.023000
53.555000,-0.319000,0.070900,-0.02,-0.13,-0.018558,-0.112808,-0.16,0.32,-0.240617,0.464162,1.390477,18.165495,-0.240617,0.464162,-0.018558,-0.112808,0.006535,-0.047896
53.589000,-0.319800,0.066500,-0.02,-0.10,-0.023968,-0.087437,-0.09,0.90,-0.061567,0.994115,5.113634,11.477978,-0.061567,0.994115,-0.023968,-0.087437,0.004110,-0.085447
53.622000,-0.320900,0.063500,-0.03,-0.06,-0.023795,-0.049060,0.03,1.23,0.068581,1.213827,4.158345,2.661337,0.068581,1.213827,-0.023795,-0.049060,0.001487,-0.061183
53.655000,-0.321900,0.062300,-0.02,-0.01,-0.018990,-0.007840,0.15,1.19,0.200611,1.147738,1.121285,-9.622720,0.200611,1.147738,-0.018990,-0.007840,0.000211,-0.012807
53.688000,-0.322400,0.062900,-0.01,0.03,-0.012809,0.022461,0.21,0.74,0.154198,0.583425,-0.763236,-19.659196,0.154198,0.583425,-0.012809,0.022461,0.000334,0.011129
53.722000,-0.322800,0.064700,-0.01,0.04,-0.007301,0.030623,0.20,0.02,0.173274,-0.119970,1.225799,-23.909341,0.173274,-0.119970,-0.007301,0.030623,0.000496,-0.004939
53.755000,-0.323000,0.066900,-0.00,0.03,-0.000697,0.012238,0.16,-0.67,0.199955,-0.913963,-2.520182,-14.735217,0.199955,-0.913963,-0.000697,0.012238,0.000075,-0.011324
53.789000,-0.322800,0.067600,0.00,-0.01,0.003079,-0.022391,0.06,-0.99,0.011744,-1.028964,-4.509187,5.485507,0.011744,-1.028964,0.003079,-0.022391,0.000255,0.023075
53.822000,-0.322600,0.066200,0.01,-0.05,0.001786,-0.051284,-0.10,-0.80,-0.089669,-0.612172,-5.040973,16.533302,-0.089669,-0.612172,0.001786,-0.051284,0.001317,0.031234
53.855000,-0.322300,0.063400,-0.00,-0.07,-0.005112,-0.061952,-0.24,-0.26,-0.304943,-0.009201,-3.552902,17.080226,-0.304943,-0.009201,-0.005112,-0.061952,0.001932,0.002129
53.889000,-0.322400,0.060500,-0.01,-0.07,-0.015710,-0.053554,-0.25,0.31,-0.283233,0.469535,4.610330,9.683688,-0.283233,0.469535,-0.015710,-0.053554,0.001557,-0.020696
53.922000,-0.323200,0.058500,-0.02,-0.04,-0.021322,-0.034079,-0.11,0.66,-0.031949,0.635402,7.968066,1.810371,-0.031949,0.635402,-0.021322,-0.034079,0.000808,-0.020973
53.955000,-0.324400,0.057500,-0.02,-0.02,-0.018345,-0.012359,0.06,0.69,0.185359,0.610675,3.262523,-3.755926,0.185359,0.610675,-0.018345,-0.012359,0.000245,-0.010948
53.989000,-0.325200,0.057500,-0.02,0.01,-0.011881,0.005169,0.10,0.49,0.156528,0.397510,-5.708040,-8.434121,0.156528,0.397510,-0.011881,0.005169,0.000084,0.000195
54.022000,-0.325200,0.058300,-0.01,0.02,-0.011451,0.013344,0.00,0.19,-0.136454,0.083929,-6.768262,-8.392350,-0.136454,0.083929,-0.011451,0.013344,0.000155,0.002682
54.055000,-0.325300,0.059200,-0.01,0.02,-0.018227,0.012236,-0.12,-0.05,-0.230939,-0.124009,0.888932,-2.539384,-0.230939,-0.124009,-0.018227,0.012236,0.000241,0.002692
54.089000,-0.326100,0.059700,-0.02,0.01,-0.024187,0.008062,-0.14,-0.15,-0.100880,-0.103998,4.903737,0.934337,-0.100880,-0.103998,-0.024187,0.008062,0.000325,0.001601
54.122000,-0.327200,0.059900,-0.03,0.00,-0.024961,0.004690,-0.05,-0.14,0.045619,-0.093268,1.919546,0.686594,0.045619,-0.093268,-0.024961,0.004690,0.000323,-0.001576
54.155000,-0.328100,0.059900,-0.03,0.00,-0.023510,0.002003,0.03,-0.12,0.030438,-0.070123,-0.081916,-0.630941,0.030438,-0.070123,-0.023510,0.002003,0.000278,-0.000856
54.189000,-0.328900,0.060000,-0.02,-0.00,-0.022008,-0.001376,0.07,-0.12,0.057130,-0.131759,-0.117773,-1.739910,0.057130,-0.131759,-0.022008,-0.001376,0.000243,-0.001076
54.222000,-0.329600,0.060000,-0.02,-0.01,-0.020536,-0.006513,0.08,-0.12,0.035020,-0.158599,1.026831,1.725083,0.035020,-0.158599,-0.020536,-0.006513,0.000232,0.000314
54.256000,-0.330300,0.059600,-0.02,-0.01,-0.017834,-0.009934,0.12,-0.12,0.131900,-0.047192,2.907802,1.534692,0.131900,-0.047192,-0.017834,-0.009934,0.000208,-0.001884
54.289000,-0.330900,0.059100,-0.01,-0.01,-0.011910,-0.012096,0.21,-0.19,0.216449,-0.114796,3.253048,-5.075301,0.216449,-0.114796,-0.011910,-0.012096,0.000144,-0.001189
54.322000,-0.331400,0.058700,-0.00,-0.02,-0.002506,-0.020461,0.26,-0.50,0.319977,-0.431890,0.125713,-16.120751,0.319977,-0.431890,-0.002506,-0.020461,0.000212,0.008035
54.356000,-0.331400,0.058300,0.01,-0.04,0.006829,-0.047256,0.19,-1.13,0.199939,-1.186847,-6.645639,-24.893945,0.199939,-1.186847,0.006829,-0.047256,0.001140,0.057451
54.389000,-0.330800,0.057000,0.01,-0.09,0.008890,-0.102136,0.00,-1.97,-0.083955,-2.043146,-7.712358,-25.122726,-0.083955,-2.043146,0.008890,-0.102136,0.005255,0.207932
54.422000,-0.330100,0.053600,0.01,-0.17,0.002497,-0.185397,-0.18,-2.76,-0.270221,-2.817504,-2.711033,-17.665103,-0.270221,-2.817504,0.002497,-0.185397,0.017189,0.521682
54.455000,-0.330000,0.046500,-0.00,-0.28,-0.007007,-0.288772,-0.27,-3.30,-0.265681,-3.208224,2.238190,-5.965181,-0.265681,-3.208224,-0.007007,-0.288772,0.041719,0.928306
54.489000,-0.330600,0.035100,-0.01,-0.40,-0.014232,-0.399494,-0.24,-3.54,-0.154196,-3.276251,2.518469,-1.924167,-0.154196,-3.276251,-0.014232,-0.399494,0.079899,1.311036
54.522000,-0.331200,0.019800,-0.02,-0.52,-0.018613,-0.512505,-0.12,-3.52,-0.102419,-3.346701,1.587861,1.494407,-0.102419,-3.346701,-0.018613,-0.512505,0.131504,1.717108
54.556000,-0.331800,0.000500,-0.02,-0.64,-0.020793,-0.623487,0.06,-3.28,-0.003121,-3.139100,7.416103,9.310370,-0.003121,-3.139100,-0.020793,-0.623487,0.194584,1.957252
54.589000,-0.332900,-0.022800,-0.02,-0.74,-0.014738,-0.723523,0.27,-2.80,0.362072,-2.692126,8.762432,19.769705,0.362072,-2.692126,-0.014738,-0.723523,0.261851,1.942479
54.622000,-0.333700,-0.049700,-0.00,-0.83,0.000778,-0.800931,0.42,-2.02,0.513977,-1.821304,0.470186,27.957134,0.513977,-1.821304,0.000778,-0.800931,0.320746,1.459139
54.656000,-0.333400,-0.079000,0.01,-0.88,0.016873,-0.846682,0.43,-1.04,0.398315,-0.868780,-7.048143,28.891698,0.398315,-0.868780,0.016873,-0.846682,0.358578,0.742301
54.689000,-0.332300,-0.109700,0.03,-0.90,0.025409,-0.859978,0.27,-0.18,0.103990,0.032237,-5.813827,18.591774,0.103990,0.032237,0.025409,-0.859978,0.370104,-0.025081
54.722000,-0.331200,-0.140100,0.03,-0.88,0.027349,-0.852458,0.03,0.25,0.017637,0.315930,-4.104870,-1.839124,0.017637,0.315930,0.027349,-0.852458,0.363716,-0.268835
54.756000,-0.330000,-0.168900,0.03,-0.87,0.024520,-0.846272,-0.15,0.22,-0.177970,0.000358,-3.667330,-12.155480,-0.177970,0.000358,0.024520,-0.846272,0.358389,-0.004667
54.789000,-0.329100,-0.196900,0.02,-0.87,0.017673,-0.852607,-0.22,0.02,-0.205740,-0.330551,0.930870,-1.537350,-0.205740,-0.330551,0.017673,-0.852607,0.363625,0.278195
54.822000,-0.328600,-0.226000,0.01,-0.87,0.011648,-0.860393,-0.21,-0.02,-0.144449,-0.065845,1.346115,12.983484,-0.144449,-0.065845,0.011648,-0.860393,0.370206,0.054970
54.856000,-0.328400,-0.255900,0.01,-0.88,0.007052,-0.854250,-0.16,0.21,-0.129251,0.425331,0.591520,11.236680,-0.129251,0.425331,0.007052,-0.854250,0.364896,-0.364251
54.889000,-0.328300,-0.285100,0.00,-0.86,0.003076,-0.835651,-0.14,0.55,-0.111697,0.635414,-1.691275,3.665655,-0.111697,0.635414,0.003076,-0.835651,0.349161,-0.531328
54.922000,-0.328100,-0.313400,-0.00,-0.83,-0.002520,-0.812696,-0.12,0.73,-0.204758,0.688613,1.088843,-0.961644,-0.204758,0.688613,-0.002520,-0.812696,0.330241,-0.559117
54.956000,-0.328300,-0.340800,-0.01,-0.81,-0.006729,-0.790738,-0.03,0.66,-0.022706,0.583512,6.260270,-5.644979,-0.022706,0.583512,-0.006729,-0.790738,0.312656,-0.461252
54.989000,-0.328800,-0.367000,-0.01,-0.79,-0.004197,-0.774714,0.09,0.54,0.162733,0.374218,4.193168,-3.115318,0.162733,0.374218,-0.004197,-0.774714,0.300100,-0.290595
55.022000,-0.329200,-0.392700,0.00,-0.78,0.002877,-0.761644,0.15,0.59,0.226385,0.447972,-1.862143,9.247088,0.226385,0.447972,0.002877,-0.761644,0.290055,-0.340544
55.056000,-0.328900,-0.418800,0.01,-0.76,0.007991,-0.738372,0.11,0.85,0.058846,0.945615,-5.707144,15.015448,0.058846,0.945615,0.007991,-0.738372,0.272628,-0.697745
55.089000,-0.328200,-0.444200,0.01,-0.72,0.007122,-0.698777,0.04,1.18,-0.089428,1.347220,-0.837503,5.209880,-0.089428,1.347220,0.007122,-0.698777,0.244170,-0.942044
55.122000,-0.328000,-0.467300,0.01,-0.67,0.005419,-0.652883,0.04,1.45,0.017731,1.332495,5.746952,-0.127484,0.017731,1.332495,0.005419,-0.652883,0.213143,-0.869867
55.156000,-0.328100,-0.488600,0.01,-0.62,0.009892,-0.606159,0.15,1.68,0.246365,1.453444,5.058692,9.327967,0.246365,1.453444,0.009892,-0.606159,0.183763,-0.878581
55.189000,-0.327700,-0.508800,0.02,-0.56,0.020076,-0.548770,0.34,1.99,0.345583,1.952933,3.232093,16.321985,0.345583,1.952933,0.020076,-0.548770,0.150776,-1.064773
55.223000,-0.327000,-0.527000,0.03,-0.49,0.034080,-0.473248,0.49,2.43,0.475917,2.476851,4.244102,12.490865,0.475917,2.476851,0.034080,-0.473248,0.112563,-1.155946
55.256000,-0.325900,-0.542200,0.05,-0.40,0.052531,-0.383408,0.52,2.88,0.580256,2.787990,-1.722283,8.247508,0.580256,2.787990,0.052531,-0.383408,0.074881,-1.038457
55.289000,-0.323700,-0.554100,0.07,-0.30,0.068847,-0.283871,0.38,3.20,0.341830,3.056924,-9.703772,6.212688,0.341830,3.056924,0.068847,-0.283871,0.042661,-0.844237
55.323000,-0.320800,-0.562200,0.08,-0.19,0.074315,-0.176899,0.05,3.45,-0.036150,3.240108,-12.240441,7.127534,-0.036150,3.240108,0.074315,-0.176899,0.018408,-0.575860
55.356000,-0.317900,-0.566500,0.08,-0.07,0.065895,-0.061476,-0.41,3.75,-0.459674,3.566566,-12.774337,12.135423,-0.459674,3.566566,0.065895,-0.061476,0.004061,-0.249550
55.389000,-0.315300,-0.567100,0.05,0.06,0.043139,0.067419,-0.80,4.05,-0.853975,3.999930,-8.568597,10.366253,-0.853975,3.999930,0.043139,0.067419,0.003203,0.232833
55.423000,-0.313700,-0.563200,0.02,0.20,0.010983,0.207363,-0.94,4.15,-0.983071,4.161409,2.803520,-4.518599,-0.983071,4.161409,0.010983,0.207363,0.021560,0.852126
55.456000,-0.314000,-0.553700,-0.02,0.35,-0.018104,0.342080,-0.79,3.90,-0.683433,3.692259,12.449579,-19.644582,-0.683433,3.692259,-0.018104,0.342080,0.058673,1.275420
55.489000,-0.315600,-0.539100,-0.04,0.47,-0.033662,0.455095,-0.46,3.32,-0.238102,2.944133,9.432915,-20.723971,-0.238102,2.944133,-0.033662,0.455095,0.104122,1.347875
55.523000,-0.317200,-0.521000,-0.05,0.57,-0.038448,0.544791,-0.08,2.62,-0.057472,2.357988,5.873319,-13.883852,-0.057472,2.357988,-0.038448,0.544791,0.149138,1.286819
55.556000,-0.318800,-0.500500,-0.04,0.64,-0.036161,0.618200,0.22,2.02,0.194634,1.972210,8.010619,-11.121539,0.194634,1.972210,-0.036161,0.618200,0.191739,1.212182
55.589000,-0.320300,-0.477900,-0.03,0.70,-0.024976,0.678268,0.41,1.51,0.444573,1.544700,4.381209,-15.404759,0.444573,1.544700,-0.024976,0.678268,0.230336,1.036617
55.623000,-0.321200,-0.453400,-0.01,0.75,-0.008964,0.720571,0.46,0.97,0.464570,0.929770,-2.387168,-19.368638,0.464570,0.929770,-0.008964,0.720571,0.259652,0.665801
55.656000,-0.321200,-0.427500,0.00,0.77,0.004433,0.741106,0.35,0.43,0.299304,0.300676,-7.459488,-15.601608,0.299304,0.300676,0.004433,0.741106,0.274629,0.224159
55.689000,-0.320500,-0.401200,0.01,0.77,0.009662,0.744307,0.15,0.08,0.010771,-0.048434,-6.358611,-2.383008,0.010771,-0.048434,0.009662,0.744307,0.277043,-0.035946
55.723000,-0.319900,-0.375700,0.01,0.76,0.007741,0.744709,-0.07,0.08,-0.109317,0.133351,-2.992090,11.049056,-0.109317,0.133351,0.007741,0.744709,0.277326,0.098462
55.756000,-0.319600,-0.350800,0.01,0.77,0.002247,0.756830,-0.23,0.34,-0.206255,0.578840,-1.876484,9.766225,-0.206255,0.578840,0.002247,0.756830,0.286398,0.437619
55.789000,-0.319500,-0.325200,-0.00,0.79,-0.005443,0.779627,-0.28,0.63,-0.240023,0.725436,-1.076457,0.924943,-0.240023,0.725436,-0.005443,0.779627,0.303924,0.566876
55.823000,-0.319700,-0.298400,-0.01,0.82,-0.014299,0.803789,-0.26,0.74,-0.270218,0.676337,1.628068,-3.359685,-0.270218,0.676337,-0.014299,0.803789,0.323140,0.547496
55.856000,-0.320500,-0.270500,-0.02,0.84,-0.021509,0.824687,-0.24,0.73,-0.157128,0.570038,1.046037,0.230277,-0.157128,0.570038,-0.021509,0.824687,0.340286,0.473483
55.890000,-0.321400,-0.242000,-0.03,0.86,-0.027741,0.846249,-0.25,0.84,-0.226213,0.738775,-3.264710,8.913434,-0.226213,0.738775,-0.027741,0.846249,0.358454,0.631463
55.923000,-0.322300,-0.213100,-0.04,0.89,-0.037457,0.877917,-0.31,1.16,-0.345032,1.152872,-3.444106,15.411427,-0.345032,1.152872,-0.037457,0.877917,0.386071,1.025050
55.956000,-0.323600,-0.183300,-0.05,0.94,-0.050776,0.926658,-0.36,1.59,-0.415998,1.699358,1.426134,13.648163,-0.415998,1.699358,-0.050776,0.926658,0.430637,1.595847
55.990000,-0.325600,-0.151400,-0.06,1.00,-0.062418,0.990101,-0.28,1.84,-0.244581,1.954370,6.342381,-0.934349,-0.244581,1.954370,-0.062418,0.990101,0.492098,1.950290
56.023000,-0.328000,-0.116900,-0.07,1.07,-0.066946,1.051690,-0.05,1.51,-0.010375,1.544893,8.821552,-24.012807,-0.010375,1.544893,-0.066946,1.051690,0.555267,1.625443
56.056000,-0.330700,-0.079800,-0.07,1.12,-0.061675,1.085233,0.22,0.33,0.308334,0.287651,7.138812,-52.552001,0.308334,0.287651,-0.061675,1.085233,0.590767,0.293152
56.090000,-0.333100,-0.040600,-0.05,1.11,-0.048724,1.059177,0.32,-1.58,0.407695,-1.893250,-2.799519,-68.575731,0.407695,-1.893250,-0.048724,1.059177,0.562115,-2.025151
56.123000,-0.334500,-0.002600,-0.04,1.02,-0.038866,0.956217,0.19,-3.71,0.134957,-4.096656,-11.256057,-53.793526,0.134957,-4.096656,-0.038866,0.956217,0.457931,-3.922537
56.156000,-0.335200,0.030000,-0.04,0.85,-0.041151,0.792272,-0.07,-5.42,-0.255579,-5.410082,-8.385238,-26.172490,-0.255579,-5.410082,-0.041151,0.792272,0.314694,-4.275737
56.190000,-0.336300,0.055300,-0.05,0.64,-0.052429,0.597951,-0.23,-6.22,-0.352908,-5.890493,4.041228,-2.620532,-0.352908,-5.890493,-0.052429,0.597951,0.180147,-3.503721
56.223000,-0.338300,0.072700,-0.06,0.42,-0.059387,0.400249,-0.12,-6.07,-0.022118,-5.629584,11.149260,17.410523,-0.022118,-5.629584,-0.059387,0.400249,0.081863,-2.251925
56.256000,-0.340800,0.082400,-0.06,0.22,-0.054216,0.222045,0.18,-5.25,0.315956,-4.780691,9.157452,29.815904,0.315956,-4.780691,-0.054216,0.222045,0.026122,-1.078658
56.290000,-0.343100,0.086000,-0.05,0.06,-0.039155,0.077817,0.37,-4.01,0.518744,-3.659786,-1.916111,36.335095,0.518744,-3.659786,-0.039155,0.077817,0.003794,-0.305105
56.323000,-0.344100,0.085300,-0.03,-0.05,-0.026224,-0.024451,0.28,-2.49,0.195585,-2.315051,-12.786597,44.577731,0.195585,-2.315051,-0.026224,-0.024451,0.000643,0.051477
56.356000,-0.344300,0.081300,-0.02,-0.11,-0.026950,-0.075624,0.01,-0.85,-0.218556,-0.679822,-7.273964,50.589413,-0.218556,-0.679822,-0.026950,-0.075624,0.003223,0.057301
56.390000,-0.344900,0.075900,-0.03,-0.11,-0.035741,-0.070029,-0.20,0.59,-0.258538,0.923384,1.321069,33.883105,-0.258538,0.923384,-0.035741,-0.070029,0.003091,-0.055423
56.423000,-0.346300,0.072300,-0.04,-0.06,-0.043251,-0.026359,-0.20,1.44,-0.157611,1.495563,6.481645,3.053582,-0.157611,1.495563,-0.043251,-0.026359,0.001283,-0.032604
56.456000,-0.348200,0.071800,-0.05,0.01,-0.043762,0.021435,-0.03,1.45,0.124077,1.200928,4.904835,-18.968555,0.124077,1.200928,-0.043762,0.021435,0.001187,0.020313
56.490000,-0.349700,0.073900,-0.04,0.06,-0.038726,0.048567,0.18,0.76,0.161414,0.354500,2.480809,-26.186996,0.161414,0.354500,-0.038726,0.048567,0.001929,0.010966
56.523000,-0.351100,0.076900,-0.03,0.06,-0.030741,0.046716,0.29,-0.12,0.302292,-0.427998,2.556081,-17.703006,0.302292,-0.427998,-0.030741,0.046716,0.001564,-0.029287
56.557000,-0.352200,0.079200,-0.02,0.04,-0.020156,0.024827,0.27,-0.73,0.293547,-0.799207,-3.559986,-5.459803,0.293547,-0.799207,-0.020156,0.024827,0.000511,-0.025758
56.590000,-0.352600,0.079900,-0.01,0.00,-0.013507,-0.003558,0.13,-0.92,0.081285,-0.820884,-7.641111,4.090376,0.081285,-0.820884,-0.013507,-0.003558,0.000098,0.001823
56.623000,-0.352600,0.079100,-0.01,-0.03,-0.015047,-0.027705,-0.02,-0.77,-0.150187,-0.578790,-2.661934,6.821511,-0.150187,-0.578790,-0.015047,-0.027705,0.000497,0.018295
56.657000,-0.353000,0.077700,-0.02,-0.05,-0.019465,-0.044099,-0.06,-0.43,-0.076363,-0.372648,4.908530,8.444352,-0.076363,-0.372648,-0.019465,-0.044099,0.001162,0.017920
56.690000,-0.353900,0.075700,-0.02,-0.06,-0.018660,-0.050611,0.04,-0.01,0.130446,0.009631,6.046035,13.516476,0.130446,0.009631,-0.018660,-0.050611,0.001455,-0.002922
56.723000,-0.354800,0.073300,-0.02,-0.05,-0.011297,-0.041970,0.19,0.40,0.284149,0.490968,1.613738,11.982022,0.284149,0.490968,-0.011297,-0.041970,0.000945,-0.023816
56.756000,-0.355100,0.071600,-0.00,-0.03,-0.002052,-0.019883,0.27,0.73,0.242110,0.776676,-2.539777,4.832812,0.242110,0.776676,-0.002052,-0.019883,0.000200,-0.015939
56.790000,-0.354900,0.071200,0.01,0.00,0.004679,0.007992,0.26,0.94,0.160999,0.843242,-0.260351,1.742360,0.160999,0.843242,0.004679,0.007992,0.000043,0.007492
56.823000,-0.354600,0.071800,0.01,0.04,0.011140,0.037928,0.24,0.96,0.228180,0.900753,2.130588,-0.494307,0.228180,0.900753,0.011140,0.037928,0.000781,0.036706
56.857000,-0.354200,0.073500,0.02,0.07,0.019793,0.067049,0.25,0.81,0.273917,0.780862,1.000779,-6.947751,0.273917,0.780862,0.019793,0.067049,0.002444,0.057778
56.890000,-0.353500,0.076500,0.03,0.09,0.029298,0.088248,0.20,0.52,0.260298,0.441265,-4.301618,-12.530543,0.260298,0.441265,0.029298,0.088248,0.004323,0.046567
56.923000,-0.352200,0.080300,0.04,0.11,0.033876,0.095531,0.03,0.14,-0.013088,-0.004165,-9.402080,-9.872086,-0.013088,-0.004165,0.033876,0.095531,0.005137,-0.000841
56.957000,-0.350700,0.084000,0.03,0.10,0.028094,0.091537,-0.23,-0.21,-0.319237,-0.214299,-7.637518,-5.853997,-0.319237,-0.214299,0.028094,0.091537,0.004584,-0.028585
56.990000,-0.349500,0.087300,0.02,0.09,0.013842,0.080484,-0.43,-0.49,-0.490316,-0.436497,-1.938837,-5.801352,-0.490316,-0.436497,0.013842,0.080484,0.003335,-0.041918
57.023000,-0.349100,0.089900,-0.00,0.07,-0.002529,0.062371,-0.44,-0.78,-0.436492,-0.650325,5.930740,-10.794499,-0.436492,-0.650325,-0.002529,0.062371,0.001948,-0.039458
57.057000,-0.349700,0.092000,-0.01,0.04,-0.012494,0.031897,-0.28,-1.15,-0.140051,-1.156723,7.821077,-15.328310,-0.140051,-1.156723,-0.012494,0.031897,0.000587,-0.035147
57.090000,-0.350600,0.093200,-0.02,-0.01,-0.013942,-0.015416,-0.07,-1.49,0.033667,-1.589141,2.663009,-8.700263,0.033667,-1.589141,-0.013942,-0.015416,0.000216,0.024029
57.123000,-0.351200,0.092400,-0.02,-0.07,-0.012290,-0.071926,0.04,-1.55,0.043544,-1.647090,-1.698018,9.670691,0.043544,-1.647090,-0.012290,-0.071926,0.002662,0.117934
57.157000,-0.351500,0.088700,-0.01,-0.12,-0.012256,-0.117498,0.05,-1.14,-0.041197,-0.959883,-1.217315,24.862362,-0.041197,-0.959883,-0.012256,-0.117498,0.006978,0.113289
57.190000,-0.351900,0.083200,-0.01,-0.15,-0.013446,-0.135411,0.02,-0.34,-0.017631,-0.083669,1.422314,25.526609,-0.017631,-0.083669,-0.013446,-0.135411,0.009258,0.011567
57.224000,-0.352400,0.077400,-0.01,-0.15,-0.013066,-0.124464,0.05,0.54,0.046664,0.699537,2.631442,20.112406,0.046664,0.699537,-0.013066,-0.124464,0.007831,-0.087677
57.257000,-0.352900,0.072600,-0.01,-0.11,-0.009729,-0.090739,0.13,1.18,0.151417,1.228414,3.007874,9.461700,0.151417,1.228414,-0.009729,-0.090739,0.004164,-0.112938
57.290000,-0.353300,0.069700,-0.01,-0.06,-0.003023,-0.046243,0.21,1.40,0.238463,1.323344,2.159016,-2.756799,0.238463,1.323344,-0.003023,-0.046243,0.001074,-0.061916
57.324000,-0.353400,0.068800,0.00,-0.01,0.006085,-0.004856,0.27,1.16,0.287250,1.050053,0.225081,-14.413166,0.287250,1.050053,0.006085,-0.004856,0.000030,-0.003351
57.357000,-0.353000,0.069700,0.01,0.03,0.015421,0.020282,0.27,0.57,0.249816,0.391962,-2.199927,-22.314728,0.249816,0.391962,0.015421,0.020282,0.000325,0.011802
57.390000,-0.352300,0.071600,0.02,0.04,0.022293,0.020586,0.18,-0.14,0.147181,-0.354387,-3.138439,-18.524633,0.147181,-0.354387,0.022293,0.020586,0.000460,-0.004014
57.423000,-0.351400,0.073100,0.03,0.01,0.025485,0.000316,0.02,-0.63,0.030122,-0.768680,-5.819251,-3.997262,0.030122,-0.768680,0.025485,0.000316,0.000325,0.000525
57.457000,-0.350200,0.073000,0.03,-0.02,0.022220,-0.024621,-0.14,-0.71,-0.216749,-0.631718,-5.150337,9.921804,-0.216749,-0.631718,0.022220,-0.024621,0.000550,0.010737
57.490000,-0.349300,0.071400,0.02,-0.04,0.013384,-0.038977,-0.23,-0.44,-0.275001,-0.198557,1.458084,11.588550,-0.275001,-0.198557,0.013384,-0.038977,0.000849,0.004059
57.524000,-0.349000,0.069400,0.01,-0.05,0.005975,-0.040502,-0.21,-0.05,-0.148039,0.089898,3.731086,6.447363,-0.148039,0.089898,0.005975,-0.040502,0.000838,-0.004526
57.557000,-0.349100,0.067800,0.00,-0.04,0.002614,-0.034447,-0.11,0.26,-0.052485,0.254622,2.932081,4.331126,-0.052485,0.254622,0.002614,-0.034447,0.000597,-0.008908
57.590000,-0.349200,0.066700,0.00,-0.03,0.002493,-0.023235,-0.02,0.47,0.033861,0.402239,-0.108602,5.082764,0.033861,0.402239,0.002493,-0.023235,0.000273,-0.009262
57.624000,-0.349000,0.065800,0.00,-0.01,0.002485,-0.006468,0.04,0.53,-0.031939,0.562428,0.576591,1.781004,-0.031939,0.562428,0.002485,-0.006468,0.000024,-0.003717
57.657000,-0.349000,0.065600,0.00,0.01,0.003281,0.011839,0.09,0.41,0.089228,0.462345,3.841398,-10.040227,0.089228,0.462345,0.003281,0.011839,0.000075,0.005766
57.690000,-0.349000,0.066700,0.01,0.02,0.008110,0.019032,0.13,0.08,0.181357,-0.062288,0.524309,-15.582046,0.181357,-0.062288,0.008110,0.019032,0.000214,0.000285
57.724000,-0.348700,0.068100,0.01,0.02,0.013500,0.009271,0.12,-0.28,0.119588,-0.472780,-2.982776,-6.549621,0.119588,-0.472780,0.013500,0.009271,0.000134,-0.002769
57.757000,-0.348100,0.068500,0.02,-0.00,0.015652,-0.007824,0.04,-0.46,0.003301,-0.479653,-3.696094,4.898301,0.003301,-0.479653,0.015652,-0.007824,0.000153,0.003804
57.790000,-0.347300,0.067800,0.02,-0.02,0.013764,-0.019816,-0.05,-0.35,-0.104470,-0.205596,-1.590196,8.205681,-0.104470,-0.205596,0.013764,-0.019816,0.000291,0.002636
57.824000,-0.346800,0.066700,0.01,-0.03,0.010131,-0.022785,-0.09,-0.08,-0.093755,0.023960,2.458307,6.106414,-0.093755,0.023960,0.010131,-0.022785,0.000311,-0.001496
57.857000,-0.346700,0.065600,0.01,-0.02,0.008925,-0.018824,-0.09,0.15,0.013819,0.194401,0.038674,3.604479,0.013819,0.194401,0.008925,-0.018824,0.000217,-0.003536
57.890000,-0.346400,0.064900,0.01,-0.01,0.007670,-0.010856,-0.10,0.24,-0.102231,0.250253,-3.877293,-1.296828,-0.102231,0.250253,0.007670,-0.010856,0.000088,-0.003501
57.924000,-0.346000,0.064700,0.00,-0.00,0.002357,-0.004293,-0.14,0.17,-0.199760,0.117362,-1.593871,-4.385898,-0.199760,0.117362,0.002357,-0.004293,0.000012,-0.000975
57.957000,-0.345900,0.064700,-0.00,-0.00,-0.004538,-0.002770,-0.12,-0.04,-0.180090,-0.044459,3.964657,-7.360802,-0.180090,-0.044459,-0.004538,-0.002770,0.000014,0.000940
57.990000,-0.346300,0.064900,-0.01,-0.01,-0.006981,-0.009715,0.01,-0.34,0.054435,-0.378324,7.762914,-10.226662,0.054435,-0.378324,-0.006981,-0.009715,0.000072,0.003295
58.024000,-0.346800,0.064800,-0.01,-0.02,-0.000817,-0.028306,0.24,-0.71,0.304653,-0.719253,6.990130,-10.033999,0.304653,-0.719253,-0.000817,-0.028306,0.000401,0.020111
58.057000,-0.347000,0.063800,0.01,-0.05,0.013120,-0.058665,0.43,-1.14,0.493575,-1.080421,3.041903,-12.016695,0.493575,-1.080421,0.013120,-0.058665,0.001807,0.069859
58.090000,-0.346500,0.061600,0.03,-0.10,0.030319,-0.103262,0.46,-1.69,0.481462,-1.577099,-4.317631,-19.364782,0.481462,-1.577099,0.030319,-0.103262,0.005791,0.177451
58.124000,-0.345100,0.057900,0.04,-0.16,0.042616,-0.170084,0.26,-2.41,0.210565,-2.378474,-10.972765,-25.107358,0.210565,-2.378474,0.042616,-0.170084,0.015372,0.413514
58.157000,-0.343100,0.051800,0.05,-0.25,0.042752,-0.265247,-0.08,-3.19,-0.203049,-3.203956,-11.241323,-23.154696,-0.203049,-3.203956,0.042752,-0.265247,0.036092,0.841160
58.191000,-0.341200,0.042100,0.04,-0.38,0.030486,-0.386199,-0.37,-3.79,-0.484138,-3.837941,-4.656449,-8.414715,-0.484138,-3.837941,0.030486,-0.386199,0.075040,1.467449
58.224000,-0.340100,0.027400,0.02,-0.52,0.013228,-0.516622,-0.42,-3.92,-0.473768,-3.745977,7.368436,8.996946,-0.473768,-3.745977,0.013228,-0.516622,0.133537,1.928987
58.257000,-0.340100,0.007400,0.00,-0.65,0.004140,-0.637112,-0.15,-3.55,-0.023886,-3.281239,15.081552,20.186173,-0.023886,-3.281239,0.004140,-0.637112,0.202965,2.090419
58.291000,-0.340600,-0.017100,0.00,-0.76,0.011677,-0.734936,0.30,-2.81,0.456514,-2.451960,12.858633,22.567734,0.456514,-2.451960,0.011677,-0.734936,0.270134,1.807365
58.324000,-0.340700,-0.044200,0.02,-0.84,0.033396,-0.806820,0.63,-1.87,0.770153,-1.764116,2.536472,24.034448,0.770153,-1.764116,0.033396,-0.806820,0.326037,1.449045
58.357000,-0.339300,-0.073600,0.05,-0.89,0.057880,-0.850791,0.65,-0.88,0.609337,-0.802401,-10.367523,30.718469,0.609337,-0.802401,0.057880,-0.850791,0.363598,0.717944
58.391000,-0.336600,-0.104500,0.08,-0.90,0.071054,-0.860337,0.33,-0.01,0.144611,0.197007,-13.867510,22.164871,0.144611,0.197007,0.071054,-0.860337,0.372614,-0.159217
58.424000,-0.333600,-0.134800,0.08,-0.88,0.068793,-0.845033,-0.14,0.53,-0.263615,0.613970,-10.823893,3.142287,-0.263615,0.613970,0.068793,-0.845033,0.359406,-0.536960
58.457000,-0.330800,-0.163400,0.06,-0.85,0.054394,-0.825609,-0.47,0.64,-0.547275,0.467968,-4.327256,-8.662509,-0.547275,0.467968,0.054394,-0.825609,0.342295,-0.416127
58.491000,-0.328900,-0.190900,0.04,-0.83,0.035319,-0.815287,-0.50,0.38,-0.519616,0.132265,7.757901,-8.552848,-0.519616,0.132265,0.035319,-0.815287,0.332970,-0.126186
58.524000,-0.328300,-0.218200,0.02,-0.82,0.024634,-0.814455,-0.26,0.04,-0.087706,-0.066964,12.286019,-5.201474,-0.087706,-0.066964,0.024634,-0.814455,0.331972,0.052379
58.557000,-0.328100,-0.245600,0.02,-0.83,0.027271,-0.819418,0.04,-0.13,0.212361,-0.195768,4.983828,0.357895,0.212361,-0.195768,0.027271,-0.819418,0.336095,0.166207
58.591000,-0.327400,-0.273500,0.03,-0.84,0.035530,-0.823905,0.20,-0.06,0.234636,-0.035378,-3.270345,7.567627,0.234636,-0.035378,0.035530,-0.823905,0.340041,0.037485
58.624000,-0.325900,-0.301800,0.04,-0.84,0.040410,-0.820129,0.14,0.16,0.037254,0.261841,-6.075095,8.105641,0.037254,0.261841,0.040410,-0.820129,0.337122,-0.213238
58.657000,-0.324200,-0.330000,0.04,-0.83,0.038719,-0.807380,-0.03,0.39,-0.125292,0.469068,-2.670692,4.043363,-0.125292,0.469068,0.038719,-0.807380,0.326681,-0.383567
58.691000,-0.322900,-0.357400,0.04,-0.81,0.033858,-0.790083,-0.18,0.51,-0.154043,0.521905,-0.980581,-2.268622,-0.154043,0.521905,0.033858,-0.790083,0.312689,-0.417564
58.724000,-0.321800,-0.383800,0.03,-0.79,0.027578,-0.774904,-0.28,0.52,-0.225574,0.374216,-4.477956,-1.347384,-0.225574,0.374216,0.027578,-0.774904,0.300618,-0.296203
58.757000,-0.320800,-0.409900,0.02,-0.78,0.016489,-0.760913,-0.36,0.54,-0.415297,0.473748,-2.605936,4.962924,-0.415297,0.473748,0.016489,-0.760913,0.289630,-0.367329
58.791000,-0.320300,-0.435600,0.00,-0.76,0.002810,-0.741550,-0.32,0.64,-0.353111,0.668769,4.914999,5.002057,-0.353111,0.668769,0.002810,-0.741550,0.274952,-0.496918
58.824000,-0.320400,-0.460700,-0.01,-0.73,-0.005198,-0.716546,-0.08,0.80,-0.082413,0.797157,13.000184,3.569033,-0.082413,0.797157,-0.005198,-0.716546,0.256733,-0.570771
58.858000,-0.321200,-0.484900,-0.01,-0.70,0.001113,-0.687338,0.29,0.95,0.447645,0.920744,12.738900,1.958571,0.447645,0.920744,0.001113,-0.687338,0.236217,-0.632363
58.891000,-0.321700,-0.507600,0.01,-0.67,0.021133,-0.655182,0.51,1.20,0.664006,1.010798,-2.070828,9.402168,0.664006,1.010798,0.021133,-0.655182,0.214855,-0.648224
58.924000,-0.320700,-0.529400,0.04,-0.63,0.038961,-0.611621,0.41,1.74,0.330652,1.623106,-14.282694,26.011019,0.330652,1.623106,0.038961,-0.611621,0.187799,-0.979843
58.958000,-0.318400,-0.550400,0.05,-0.56,0.041511,-0.538993,0.11,2.53,-0.162223,2.661687,-9.722330,29.171670,-0.162223,2.661687,0.041511,-0.538993,0.146118,-1.441365
58.991000,-0.316500,-0.568700,0.04,-0.46,0.033551,-0.434008,-0.10,3.30,-0.244660,3.446254,4.904109,13.331554,-0.244660,3.446254,0.033551,-0.434008,0.094744,-1.503909
59.024000,-0.315800,-0.582100,0.03,-0.33,0.030525,-0.313474,-0.08,3.78,0.084772,3.584311,8.260926,0.299150,0.084772,3.584311,0.030525,-0.313474,0.049599,-1.121001
59.057000,-0.315100,-0.590600,0.03,-0.20,0.036251,-0.191492,0.07,3.98,0.223256,3.596309,0.550998,3.914959,0.223256,3.596309,0.036251,-0.191492,0.018992,-0.680571
59.091000,-0.313700,-0.595200,0.04,-0.07,0.042829,-0.064921,0.18,4.06,0.147455,3.858006,-2.453763,7.646089,0.147455,3.858006,0.042829,-0.064921,0.003025,-0.244150
59.124000,-0.312100,-0.595700,0.05,0.07,0.046840,0.069724,0.15,4.08,0.088217,4.026171,-1.324234,0.177655,0.088217,4.026171,0.046840,0.069724,0.003528,0.284852
59.158000,-0.310500,-0.591100,0.05,0.21,0.049136,0.204232,0.02,3.94,0.035674,3.829889,-3.969021,-11.682422,0.035674,3.829889,0.049136,0.204232,0.022062,0.783938
59.191000,-0.308600,-0.581400,0.05,0.34,0.046919,0.325643,-0.14,3.55,-0.172787,3.279739,-6.023755,-16.918055,-0.172787,3.279739,0.046919,0.325643,0.054122,1.059917
59.224000,-0.306800,-0.567900,0.04,0.45,0.038150,0.427732,-0.27,2.88,-0.325620,2.707189,-1.665463,-19.767340,-0.325620,2.707189,0.038150,0.427732,0.092205,1.145530
59.258000,-0.305600,-0.551100,0.03,0.53,0.027373,0.507058,-0.34,2.08,-0.295726,1.945774,0.520655,-23.712102,-0.295726,1.945774,0.027373,0.507058,0.128928,0.978525
59.291000,-0.304900,-0.531500,0.02,0.59,0.017130,0.559679,-0.32,1.38,-0.298194,1.177983,1.664396,-18.536773,-0.298194,1.177983,0.017130,0.559679,0.156767,0.654185
59.324000,-0.304500,-0.510800,0.01,0.62,0.008888,0.591515,-0.20,0.91,-0.173477,0.760918,3.862547,-3.119062,-0.173477,0.760918,0.008888,0.591515,0.174984,0.448553
59.358000,-0.304300,-0.490200,0.00,0.64,0.005235,0.618949,0.02,0.68,-0.020942,0.872218,8.659979,0.737156,-0.020942,0.872218,0.005235,0.618949,0.191563,0.539749
59.391000,-0.304600,-0.468700,0.01,0.66,0.011259,0.646270,0.28,0.55,0.376094,0.697507,9.931921,-9.089908,0.376094,0.697507,0.011259,0.646270,0.208896,0.455012
59.424000,-0.304500,-0.446000,0.02,0.68,0.027994,0.663362,0.46,0.32,0.563806,0.286851,-0.134693,-13.901454,0.563806,0.286851,0.027994,0.663362,0.220416,0.206069
59.458000,-0.303300,-0.422700,0.04,0.69,0.044655,0.665086,0.43,-0.02,0.376517,-0.165141,-8.120165,-9.609508,0.376517,-0.165141,0.044655,0.665086,0.222167,-0.093019
59.491000,-0.301300,-0.399600,0.06,0.68,0.052386,0.656130,0.18,-0.25,0.065409,-0.316124,-10.121739,-0.155094,0.065409,-0.316124,0.052386,0.656130,0.216626,-0.203992
59.525000,-0.299000,-0.377300,0.06,0.66,0.048772,0.646877,-0.17,-0.22,-0.269963,-0.189544,-8.446892,7.701558,-0.269963,-0.189544,0.048772,0.646877,0.210415,-0.135778
59.558000,-0.297100,-0.355900,0.04,0.66,0.035650,0.646008,-0.45,-0.01,-0.478633,0.146403,-3.200783,9.049572,-0.478633,0.146403,0.035650,0.646008,0.209299,0.077514
59.591000,-0.296000,-0.334200,0.02,0.66,0.018645,0.655105,-0.58,0.27,-0.509234,0.367666,-1.570240,3.056883,-0.509234,0.367666,0.018645,0.655105,0.214755,0.231365
59.624000,-0.295600,-0.311700,0.00,0.68,-0.000142,0.668118,-0.60,0.50,-0.581551,0.399259,0.741993,4.509007,-0.581551,0.399259,-0.000142,0.668118,0.223191,0.266835
59.658000,-0.295900,-0.289100,-0.02,0.70,-0.017954,0.686264,-0.49,0.63,-0.444917,0.664874,4.791483,4.600336,-0.444917,0.664874,-0.017954,0.686264,0.235641,0.464267
59.691000,-0.296800,-0.265700,-0.03,0.72,-0.030222,0.709391,-0.25,0.68,-0.255180,0.672357,10.251237,-2.298182,-0.255180,0.672357,-0.030222,0.709391,0.252074,0.484676
59.724000,-0.298500,-0.241000,-0.04,0.74,-0.031273,0.730608,0.01,0.76,0.177675,0.596526,7.913694,0.860743,0.177675,0.596526,-0.031273,0.730608,0.267383,0.430270
59.758000,-0.300000,-0.215600,-0.03,0.77,-0.023975,0.753766,0.09,1.06,0.188928,0.842248,-6.407514,18.153381,0.188928,0.842248,-0.023975,0.753766,0.284369,0.630328
59.791000,-0.300600,-0.190100,-0.02,0.80,-0.023628,0.797396,-0.11,1.68,-0.204422,1.770457,-14.484535,29.618831,-0.204422,1.770457,-0.023628,0.797396,0.318199,1.416585
59.825000,-0.300700,-0.163300,-0.03,0.87,-0.038898,0.873478,-0.43,2.40,-0.663386,2.646139,-7.987487,19.093218,-0.663386,2.646139,-0.038898,0.873478,0.382238,2.337148
59.858000,-0.301900,-0.133300,-0.06,0.97,-0.062709,0.969900,-0.57,2.64,-0.666069,2.865088,8.339947,-12.447510,-0.666069,2.865088,-0.062709,0.969900,0.472320,2.820619
59.891000,-0.304800,-0.098600,-0.08,1.08,-0.077637,1.051429,-0.39,1.85,-0.185532,1.740337,13.522174,-50.572873,-0.185532,1.740337,-0.077637,1.051429,0.555765,1.844245
59.925000,-0.308100,-0.060100,-0.09,1.13,-0.077884,1.075736,-0.04,-0.06,0.141611,-0.427883,5.922929,-73.474087,0.141611,-0.427883,-0.077884,1.075736,0.581637,-0.471318
59.958000,-0.311000,-0.020700,-0.08,1.09,-0.071304,1.017191,0.20,-2.56,0.214950,-3.010785,-0.045499,-72.460995,0.214950,-3.010785,-0.071304,1.017191,0.519881,-3.077870
59.991000,-0.313400,0.015500,-0.07,0.95,-0.064571,0.876926,0.22,-4.86,0.162753,-5.114634,-3.525907,-46.955918,0.162753,-5.114634,-0.064571,0.876926,0.386584,-4.495663
60.025000,-0.315300,0.044800,-0.06,0.74,-0.061616,0.683129,0.10,-6.28,0.010086,-6.115626,-3.616555,-13.648154,0.010086,-6.115626,-0.061616,0.683129,0.235231,-4.178383
